TempA(K)	Current(A)	Voltage(V)	R(ohm)
7.991000	1.000000E-4	1.626186E-4	1.626186
7.832000	1.000000E-4	1.628716E-4	1.628715
7.690000	1.000000E-4	1.624922E-4	1.624922
7.380000	1.000000E-4	1.623657E-4	1.623657
7.271000	1.000000E-4	1.628714E-4	1.628714
7.092000	1.000000E-4	1.623235E-4	1.623235
7.000000	1.000000E-4	1.621550E-4	1.621550
6.953000	1.000000E-4	1.630401E-4	1.630400
6.787000	1.000000E-4	1.628714E-4	1.628714
6.857000	1.000000E-4	1.637144E-4	1.637144
6.643000	1.000000E-4	1.633352E-4	1.633352
6.772000	1.000000E-4	1.642626E-4	1.642626
6.555000	1.000000E-4	1.639674E-4	1.639674
6.673000	1.000000E-4	1.638410E-4	1.638410
6.453000	1.000000E-4	1.635881E-4	1.635881
6.547000	1.000000E-4	1.636303E-4	1.636303
6.412000	1.000000E-4	1.628292E-4	1.628292
6.406000	1.000000E-4	1.629979E-4	1.629978
6.393000	1.000000E-4	1.642204E-4	1.642203
6.304000	1.000000E-4	1.638833E-4	1.638832
6.389000	1.000000E-4	1.642624E-4	1.642624
6.242000	1.000000E-4	1.633773E-4	1.633773
6.380000	1.000000E-4	1.637989E-4	1.637989
6.216000	1.000000E-4	1.635458E-4	1.635458
6.349000	1.000000E-4	1.645576E-4	1.645576
6.176000	1.000000E-4	1.640096E-4	1.640096
6.286000	1.000000E-4	1.635037E-4	1.635037
6.170000	1.000000E-4	1.636302E-4	1.636302
6.198000	1.000000E-4	1.637568E-4	1.637568
6.178000	1.000000E-4	1.645997E-4	1.645997
6.117000	1.000000E-4	1.632510E-4	1.632510
6.199000	1.000000E-4	1.637568E-4	1.637568
6.071000	1.000000E-4	1.641783E-4	1.641783
6.216000	1.000000E-4	1.639675E-4	1.639675
6.049000	1.000000E-4	1.639674E-4	1.639674
6.211000	1.000000E-4	1.638831E-4	1.638831
6.042000	1.000000E-4	1.637990E-4	1.637990
6.171000	1.000000E-4	1.640096E-4	1.640096
6.051000	1.000000E-4	1.641781E-4	1.641781
6.101000	1.000000E-4	1.640938E-4	1.640938
6.072000	1.000000E-4	1.643046E-4	1.643046
6.029000	1.000000E-4	1.643048E-4	1.643048
6.106000	1.000000E-4	1.640517E-4	1.640517
6.020000	1.000000E-4	1.637989E-4	1.637989
6.138000	1.000000E-4	1.640096E-4	1.640096
5.982000	1.000000E-4	1.638408E-4	1.638408
6.149000	1.000000E-4	1.646841E-4	1.646840
5.982000	1.000000E-4	1.632086E-4	1.632086
6.124000	1.000000E-4	1.635460E-4	1.635460
5.999000	1.000000E-4	1.639253E-4	1.639253
6.065000	1.000000E-4	1.637989E-4	1.637989
6.027000	1.000000E-4	1.643470E-4	1.643469
5.999000	1.000000E-4	1.637989E-4	1.637989
6.068000	1.000000E-4	1.641782E-4	1.641782
5.998000	1.000000E-4	1.632086E-4	1.632086
6.110000	1.000000E-4	1.638833E-4	1.638832
5.963000	1.000000E-4	1.643467E-4	1.643467
6.131000	1.000000E-4	1.641360E-4	1.641360
5.967000	1.000000E-4	1.645154E-4	1.645154
6.117000	1.000000E-4	1.643046E-4	1.643046
5.989000	1.000000E-4	1.639253E-4	1.639253
6.066000	1.000000E-4	1.641782E-4	1.641782
6.021000	1.000000E-4	1.635880E-4	1.635879
6.068000	1.000000E-4	1.640096E-4	1.640096
6.065000	1.000000E-4	1.641362E-4	1.641362
6.008000	1.000000E-4	1.638411E-4	1.638410
6.111000	1.000000E-4	1.638410E-4	1.638409
5.973000	1.000000E-4	1.647684E-4	1.647684
6.140000	1.000000E-4	1.641782E-4	1.641782
5.978000	1.000000E-4	1.640940E-4	1.640939
6.132000	1.000000E-4	1.645154E-4	1.645154
6.002000	1.000000E-4	1.643889E-4	1.643889
6.086000	1.000000E-4	1.642624E-4	1.642624
6.035000	1.000000E-4	1.635881E-4	1.635881
6.093000	1.000000E-4	1.638833E-4	1.638832
6.081000	1.000000E-4	1.639674E-4	1.639674
6.034000	1.000000E-4	1.640097E-4	1.640097
6.130000	1.000000E-4	1.632929E-4	1.632929
6.001000	1.000000E-4	1.637989E-4	1.637989
6.164000	1.000000E-4	1.641782E-4	1.641782
6.007000	1.000000E-4	1.641359E-4	1.641359
6.163000	1.000000E-4	1.638410E-4	1.638410
6.033000	1.000000E-4	1.635038E-4	1.635038
6.171000	1.000000E-4	1.632086E-4	1.632086
6.066000	1.000000E-4	1.642204E-4	1.642203
6.131000	1.000000E-4	1.641782E-4	1.641782
6.112000	1.000000E-4	1.642625E-4	1.642625
6.074000	1.000000E-4	1.647261E-4	1.647261
6.163000	1.000000E-4	1.636724E-4	1.636724
6.041000	1.000000E-4	1.640518E-4	1.640517
6.201000	1.000000E-4	1.637566E-4	1.637566
6.047000	1.000000E-4	1.639253E-4	1.639253
6.203000	1.000000E-4	1.639674E-4	1.639674
6.071000	1.000000E-4	1.643046E-4	1.643046
6.213000	1.000000E-4	1.632930E-4	1.632930
6.107000	1.000000E-4	1.641360E-4	1.641360
6.179000	1.000000E-4	1.642625E-4	1.642625
6.153000	1.000000E-4	1.637145E-4	1.637145
6.124000	1.000000E-4	1.640094E-4	1.640095
6.204000	1.000000E-4	1.641782E-4	1.641782
6.090000	1.000000E-4	1.643046E-4	1.643046
6.244000	1.000000E-4	1.638410E-4	1.638410
6.095000	1.000000E-4	1.642203E-4	1.642203
6.253000	1.000000E-4	1.645154E-4	1.645154
6.121000	1.000000E-4	1.650634E-4	1.650634
6.262000	1.000000E-4	1.637145E-4	1.637145
6.154000	1.000000E-4	1.640095E-4	1.640095
6.231000	1.000000E-4	1.635459E-4	1.635459
6.200000	1.000000E-4	1.645575E-4	1.645575
6.180000	1.000000E-4	1.635037E-4	1.635037
6.253000	1.000000E-4	1.639675E-4	1.639675
6.144000	1.000000E-4	1.636723E-4	1.636723
6.263000	1.000000E-4	1.640518E-4	1.640518
6.149000	1.000000E-4	1.640938E-4	1.640938
6.304000	1.000000E-4	1.646840E-4	1.646840
6.173000	1.000000E-4	1.639674E-4	1.639674
6.315000	1.000000E-4	1.641781E-4	1.641781
6.208000	1.000000E-4	1.643890E-4	1.643890
6.289000	1.000000E-4	1.633350E-4	1.633350
6.253000	1.000000E-4	1.642204E-4	1.642203
6.239000	1.000000E-4	1.640516E-4	1.640516
6.305000	1.000000E-4	1.643469E-4	1.643469
6.204000	1.000000E-4	1.644310E-4	1.644310
6.316000	1.000000E-4	1.636302E-4	1.636302
6.205000	1.000000E-4	1.638830E-4	1.638830
6.359000	1.000000E-4	1.639674E-4	1.639674
6.231000	1.000000E-4	1.637145E-4	1.637145
6.373000	1.000000E-4	1.637567E-4	1.637567
6.265000	1.000000E-4	1.641782E-4	1.641782
6.351000	1.000000E-4	1.641781E-4	1.641781
6.310000	1.000000E-4	1.642203E-4	1.642203
6.303000	1.000000E-4	1.640516E-4	1.640516
6.362000	1.000000E-4	1.635037E-4	1.635037
6.268000	1.000000E-4	1.633773E-4	1.633773
6.374000	1.000000E-4	1.640095E-4	1.640095
6.268000	1.000000E-4	1.635039E-4	1.635038
6.420000	1.000000E-4	1.638832E-4	1.638832
6.292000	1.000000E-4	1.644732E-4	1.644732
6.441000	1.000000E-4	1.639674E-4	1.639674
6.327000	1.000000E-4	1.639252E-4	1.639252
6.419000	1.000000E-4	1.637988E-4	1.637988
6.371000	1.000000E-4	1.641361E-4	1.641361
6.371000	1.000000E-4	1.637569E-4	1.637568
6.426000	1.000000E-4	1.637145E-4	1.637145
6.334000	1.000000E-4	1.640518E-4	1.640518
6.441000	1.000000E-4	1.638830E-4	1.638830
6.331000	1.000000E-4	1.636304E-4	1.636304
6.494000	1.000000E-4	1.642203E-4	1.642203
6.355000	1.000000E-4	1.638831E-4	1.638831
6.517000	1.000000E-4	1.642626E-4	1.642626
6.390000	1.000000E-4	1.643469E-4	1.643469
6.498000	1.000000E-4	1.640518E-4	1.640518
6.440000	1.000000E-4	1.643890E-4	1.643890
6.446000	1.000000E-4	1.640517E-4	1.640517
6.453000	1.000000E-4	1.643047E-4	1.643047
6.401000	1.000000E-4	1.639674E-4	1.639674
6.515000	1.000000E-4	1.639254E-4	1.639254
6.397000	1.000000E-4	1.640518E-4	1.640517
6.569000	1.000000E-4	1.638831E-4	1.638831
6.425000	1.000000E-4	1.635460E-4	1.635460
6.594000	1.000000E-4	1.640518E-4	1.640517
6.466000	1.000000E-4	1.633352E-4	1.633352
6.578000	1.000000E-4	1.640096E-4	1.640096
6.483000	1.000000E-4	1.641782E-4	1.641782
6.529000	1.000000E-4	1.641781E-4	1.641781
6.531000	1.000000E-4	1.638409E-4	1.638409
6.483000	1.000000E-4	1.637988E-4	1.637988
6.590000	1.000000E-4	1.640940E-4	1.640940
6.476000	1.000000E-4	1.637989E-4	1.637989
6.643000	1.000000E-4	1.641361E-4	1.641361
6.503000	1.000000E-4	1.637148E-4	1.637147
6.670000	1.000000E-4	1.637990E-4	1.637990
6.544000	1.000000E-4	1.637145E-4	1.637145
6.657000	1.000000E-4	1.641361E-4	1.641361
6.559000	1.000000E-4	1.635038E-4	1.635038
6.610000	1.000000E-4	1.635038E-4	1.635038
6.607000	1.000000E-4	1.638832E-4	1.638832
6.564000	1.000000E-4	1.638409E-4	1.638409
6.664000	1.000000E-4	1.640097E-4	1.640097
6.555000	1.000000E-4	1.640097E-4	1.640097
6.718000	1.000000E-4	1.641782E-4	1.641782
6.582000	1.000000E-4	1.642204E-4	1.642204
6.747000	1.000000E-4	1.635039E-4	1.635039
6.622000	1.000000E-4	1.636725E-4	1.636724
6.736000	1.000000E-4	1.635458E-4	1.635458
6.637000	1.000000E-4	1.637145E-4	1.637145
6.690000	1.000000E-4	1.647685E-4	1.647685
6.682000	1.000000E-4	1.635881E-4	1.635881
6.645000	1.000000E-4	1.632510E-4	1.632510
6.739000	1.000000E-4	1.631244E-4	1.631244
6.633000	1.000000E-4	1.638411E-4	1.638411
6.791000	1.000000E-4	1.637990E-4	1.637990
6.659000	1.000000E-4	1.634195E-4	1.634195
6.822000	1.000000E-4	1.635460E-4	1.635460
6.675000	1.000000E-4	1.632085E-4	1.632085
6.815000	1.000000E-4	1.634616E-4	1.634616
6.715000	1.000000E-4	1.637145E-4	1.637145
6.773000	1.000000E-4	1.631244E-4	1.631244
6.760000	1.000000E-4	1.636303E-4	1.636303
6.728000	1.000000E-4	1.631244E-4	1.631244
6.815000	1.000000E-4	1.637145E-4	1.637145
6.716000	1.000000E-4	1.632508E-4	1.632508
6.868000	1.000000E-4	1.635038E-4	1.635038
6.740000	1.000000E-4	1.640939E-4	1.640939
6.901000	1.000000E-4	1.639675E-4	1.639675
6.756000	1.000000E-4	1.642203E-4	1.642203
6.896000	1.000000E-4	1.630823E-4	1.630823
6.796000	1.000000E-4	1.635458E-4	1.635458
6.859000	1.000000E-4	1.629559E-4	1.629559
6.840000	1.000000E-4	1.632929E-4	1.632929
6.815000	1.000000E-4	1.635037E-4	1.635037
6.894000	1.000000E-4	1.631665E-4	1.631665
6.801000	1.000000E-4	1.628714E-4	1.628714
6.945000	1.000000E-4	1.634615E-4	1.634615
6.818000	1.000000E-4	1.632087E-4	1.632086
6.978000	1.000000E-4	1.630401E-4	1.630401
6.840000	1.000000E-4	1.639252E-4	1.639252
6.978000	1.000000E-4	1.634617E-4	1.634616
6.879000	1.000000E-4	1.632509E-4	1.632508
6.945000	1.000000E-4	1.636302E-4	1.636302
6.922000	1.000000E-4	1.632929E-4	1.632929
6.902000	1.000000E-4	1.640939E-4	1.640939
6.973000	1.000000E-4	1.629980E-4	1.629980
6.888000	1.000000E-4	1.634197E-4	1.634197
7.023000	1.000000E-4	1.627872E-4	1.627871
6.906000	1.000000E-4	1.634619E-4	1.634619
7.058000	1.000000E-4	1.633353E-4	1.633353
6.926000	1.000000E-4	1.635459E-4	1.635459
7.061000	1.000000E-4	1.637146E-4	1.637146
6.962000	1.000000E-4	1.630824E-4	1.630824
7.031000	1.000000E-4	1.624501E-4	1.624500
7.005000	1.000000E-4	1.639253E-4	1.639252
6.990000	1.000000E-4	1.638410E-4	1.638410
7.054000	1.000000E-4	1.635037E-4	1.635037
7.008000	1.000000E-4	1.639674E-4	1.639674
7.104000	1.000000E-4	1.633350E-4	1.633350
6.992000	1.000000E-4	1.632929E-4	1.632929
7.140000	1.000000E-4	1.629980E-4	1.629980
7.011000	1.000000E-4	1.635037E-4	1.635037
7.145000	1.000000E-4	1.631666E-4	1.631666
7.048000	1.000000E-4	1.632509E-4	1.632509
7.119000	1.000000E-4	1.630825E-4	1.630825
7.089000	1.000000E-4	1.640941E-4	1.640940
7.079000	1.000000E-4	1.631244E-4	1.631244
7.137000	1.000000E-4	1.642203E-4	1.642203
7.096000	1.000000E-4	1.621548E-4	1.621547
7.187000	1.000000E-4	1.629980E-4	1.629980
7.080000	1.000000E-4	1.634618E-4	1.634618
7.223000	1.000000E-4	1.637989E-4	1.637989
7.097000	1.000000E-4	1.625765E-4	1.625765
7.228000	1.000000E-4	1.624500E-4	1.624499
7.133000	1.000000E-4	1.635038E-4	1.635038
7.206000	1.000000E-4	1.627450E-4	1.627450
7.173000	1.000000E-4	1.627029E-4	1.627029
7.223000	1.000000E-4	1.629137E-4	1.629137
7.221000	1.000000E-4	1.629137E-4	1.629137
7.184000	1.000000E-4	1.630823E-4	1.630823
7.269000	1.000000E-4	1.636303E-4	1.636302
7.167000	1.000000E-4	1.624500E-4	1.624499
7.305000	1.000000E-4	1.631244E-4	1.631244
7.182000	1.000000E-4	1.629137E-4	1.629137
7.315000	1.000000E-4	1.633353E-4	1.633353
7.218000	1.000000E-4	1.629558E-4	1.629558
7.292000	1.000000E-4	1.628715E-4	1.628715
7.259000	1.000000E-4	1.630402E-4	1.630402
7.311000	1.000000E-4	1.629136E-4	1.629136
7.305000	1.000000E-4	1.632929E-4	1.632929
7.273000	1.000000E-4	1.627030E-4	1.627029
7.353000	1.000000E-4	1.628293E-4	1.628293
7.255000	1.000000E-4	1.635459E-4	1.635459
7.390000	1.000000E-4	1.630401E-4	1.630400
7.269000	1.000000E-4	1.627872E-4	1.627872
7.400000	1.000000E-4	1.631665E-4	1.631665
7.304000	1.000000E-4	1.622812E-4	1.622812
7.423000	1.000000E-4	1.621127E-4	1.621127
7.345000	1.000000E-4	1.633773E-4	1.633773
7.399000	1.000000E-4	1.629979E-4	1.629978
7.389000	1.000000E-4	1.631665E-4	1.631665
7.361000	1.000000E-4	1.632929E-4	1.632929
7.449000	1.000000E-4	1.625764E-4	1.625764
7.342000	1.000000E-4	1.629137E-4	1.629137
7.498000	1.000000E-4	1.625764E-4	1.625764
7.355000	1.000000E-4	1.630400E-4	1.630400
7.513000	1.000000E-4	1.629979E-4	1.629979
7.387000	1.000000E-4	1.627449E-4	1.627449
7.535000	1.000000E-4	1.616070E-4	1.616070
7.436000	1.000000E-4	1.628295E-4	1.628294
7.510000	1.000000E-4	1.619863E-4	1.619863
7.495000	1.000000E-4	1.630822E-4	1.630822
7.460000	1.000000E-4	1.619021E-4	1.619021
7.556000	1.000000E-4	1.626608E-4	1.626608
7.432000	1.000000E-4	1.622393E-4	1.622392
7.604000	1.000000E-4	1.625341E-4	1.625341
7.446000	1.000000E-4	1.624077E-4	1.624077
7.618000	1.000000E-4	1.620706E-4	1.620706
7.488000	1.000000E-4	1.623657E-4	1.623657
7.639000	1.000000E-4	1.624499E-4	1.624499
7.541000	1.000000E-4	1.625764E-4	1.625763
7.616000	1.000000E-4	1.621129E-4	1.621128
7.597000	1.000000E-4	1.626606E-4	1.626606
7.566000	1.000000E-4	1.624078E-4	1.624078
7.656000	1.000000E-4	1.632508E-4	1.632508
7.537000	1.000000E-4	1.629558E-4	1.629558
7.703000	1.000000E-4	1.627451E-4	1.627451
7.549000	1.000000E-4	1.623234E-4	1.623234
7.722000	1.000000E-4	1.626186E-4	1.626186
7.591000	1.000000E-4	1.626606E-4	1.626606
7.738000	1.000000E-4	1.626608E-4	1.626608
7.641000	1.000000E-4	1.627031E-4	1.627031
7.716000	1.000000E-4	1.627450E-4	1.627450
7.695000	1.000000E-4	1.629137E-4	1.629137
7.668000	1.000000E-4	1.624079E-4	1.624079
7.753000	1.000000E-4	1.624500E-4	1.624500
7.639000	1.000000E-4	1.624920E-4	1.624920
7.801000	1.000000E-4	1.625765E-4	1.625765
7.651000	1.000000E-4	1.624078E-4	1.624078
7.821000	1.000000E-4	1.626607E-4	1.626607
7.691000	1.000000E-4	1.632086E-4	1.632086
7.836000	1.000000E-4	1.635038E-4	1.635038
7.740000	1.000000E-4	1.623235E-4	1.623235
7.817000	1.000000E-4	1.620707E-4	1.620707
7.794000	1.000000E-4	1.618598E-4	1.618598
7.772000	1.000000E-4	1.623236E-4	1.623236
7.851000	1.000000E-4	1.619863E-4	1.619863
7.742000	1.000000E-4	1.621127E-4	1.621127
7.871000	1.000000E-4	1.614384E-4	1.614383
7.752000	1.000000E-4	1.612697E-4	1.612697
7.918000	1.000000E-4	1.626606E-4	1.626606
7.791000	1.000000E-4	1.619863E-4	1.619863
7.933000	1.000000E-4	1.618176E-4	1.618176
7.840000	1.000000E-4	1.627028E-4	1.627028
7.916000	1.000000E-4	1.619442E-4	1.619442
7.892000	1.000000E-4	1.623235E-4	1.623235
7.874000	1.000000E-4	1.620284E-4	1.620284
7.912000	1.000000E-4	1.628294E-4	1.628294
7.844000	1.000000E-4	1.623656E-4	1.623656
7.968000	1.000000E-4	1.618599E-4	1.618598
7.852000	1.000000E-4	1.624079E-4	1.624078
8.015000	1.000000E-4	1.620285E-4	1.620285
7.891000	1.000000E-4	1.627451E-4	1.627451
8.032000	1.000000E-4	1.624500E-4	1.624500
7.940000	1.000000E-4	1.613119E-4	1.613119
8.018000	1.000000E-4	1.615226E-4	1.615226
7.992000	1.000000E-4	1.626608E-4	1.626607
7.978000	1.000000E-4	1.620285E-4	1.620285
8.012000	1.000000E-4	1.622814E-4	1.622814
7.948000	1.000000E-4	1.619441E-4	1.619441
8.066000	1.000000E-4	1.623235E-4	1.623235
7.955000	1.000000E-4	1.621126E-4	1.621126
8.113000	1.000000E-4	1.626187E-4	1.626186
7.993000	1.000000E-4	1.619442E-4	1.619442
8.131000	1.000000E-4	1.620286E-4	1.620286
8.040000	1.000000E-4	1.622393E-4	1.622392
8.118000	1.000000E-4	1.621128E-4	1.621128
8.060000	1.000000E-4	1.620284E-4	1.620284
8.081000	1.000000E-4	1.618599E-4	1.618599
8.111000	1.000000E-4	1.618177E-4	1.618177
8.049000	1.000000E-4	1.627872E-4	1.627871
8.161000	1.000000E-4	1.622392E-4	1.622392
8.056000	1.000000E-4	1.617333E-4	1.617333
8.206000	1.000000E-4	1.623657E-4	1.623657
8.093000	1.000000E-4	1.620283E-4	1.620283
8.226000	1.000000E-4	1.624920E-4	1.624920
8.139000	1.000000E-4	1.617755E-4	1.617755
8.216000	1.000000E-4	1.621127E-4	1.621127
8.159000	1.000000E-4	1.616069E-4	1.616069
8.181000	1.000000E-4	1.616911E-4	1.616911
8.208000	1.000000E-4	1.617755E-4	1.617755
8.152000	1.000000E-4	1.618177E-4	1.618177
8.258000	1.000000E-4	1.615227E-4	1.615227
8.157000	1.000000E-4	1.615649E-4	1.615649
8.303000	1.000000E-4	1.617335E-4	1.617335
8.194000	1.000000E-4	1.611854E-4	1.611854
8.325000	1.000000E-4	1.610590E-4	1.610589
8.214000	1.000000E-4	1.625341E-4	1.625341
8.317000	1.000000E-4	1.617757E-4	1.617757
8.259000	1.000000E-4	1.623235E-4	1.623235
8.283000	1.000000E-4	1.619863E-4	1.619863
8.306000	1.000000E-4	1.616911E-4	1.616911
8.254000	1.000000E-4	1.615228E-4	1.615228
8.356000	1.000000E-4	1.615227E-4	1.615227
8.258000	1.000000E-4	1.624920E-4	1.624920
8.401000	1.000000E-4	1.615227E-4	1.615227
8.293000	1.000000E-4	1.618599E-4	1.618599
8.423000	1.000000E-4	1.616912E-4	1.616912
8.314000	1.000000E-4	1.614806E-4	1.614805
8.416000	1.000000E-4	1.611854E-4	1.611854
8.358000	1.000000E-4	1.618598E-4	1.618598
8.384000	1.000000E-4	1.613541E-4	1.613541
8.405000	1.000000E-4	1.620285E-4	1.620285
8.356000	1.000000E-4	1.619019E-4	1.619019
8.453000	1.000000E-4	1.613962E-4	1.613962
8.358000	1.000000E-4	1.615647E-4	1.615647
8.497000	1.000000E-4	1.615647E-4	1.615646
8.392000	1.000000E-4	1.614804E-4	1.614804
8.520000	1.000000E-4	1.612698E-4	1.612698
8.413000	1.000000E-4	1.619442E-4	1.619442
8.514000	1.000000E-4	1.610169E-4	1.610169
8.457000	1.000000E-4	1.615226E-4	1.615226
8.484000	1.000000E-4	1.609326E-4	1.609326
8.503000	1.000000E-4	1.612698E-4	1.612697
8.456000	1.000000E-4	1.608902E-4	1.608902
8.550000	1.000000E-4	1.609324E-4	1.609323
8.458000	1.000000E-4	1.600052E-4	1.600051
8.594000	1.000000E-4	1.618599E-4	1.618599
8.479000	1.000000E-4	1.608061E-4	1.608061
8.618000	1.000000E-4	1.608904E-4	1.608904
8.513000	1.000000E-4	1.621549E-4	1.621549
8.613000	1.000000E-4	1.611011E-4	1.611011
8.557000	1.000000E-4	1.612276E-4	1.612275
8.586000	1.000000E-4	1.613118E-4	1.613118
8.603000	1.000000E-4	1.610590E-4	1.610590
8.559000	1.000000E-4	1.610169E-4	1.610169
8.650000	1.000000E-4	1.614804E-4	1.614804
8.562000	1.000000E-4	1.607640E-4	1.607640
8.694000	1.000000E-4	1.615647E-4	1.615647
8.582000	1.000000E-4	1.611432E-4	1.611432
8.718000	1.000000E-4	1.612696E-4	1.612696
8.616000	1.000000E-4	1.611433E-4	1.611433
8.715000	1.000000E-4	1.609325E-4	1.609325
8.659000	1.000000E-4	1.612697E-4	1.612697
8.688000	1.000000E-4	1.606796E-4	1.606796
8.705000	1.000000E-4	1.608061E-4	1.608061
8.661000	1.000000E-4	1.609325E-4	1.609325
8.750000	1.000000E-4	1.612698E-4	1.612697
8.664000	1.000000E-4	1.611854E-4	1.611854
8.794000	1.000000E-4	1.603003E-4	1.603003
8.686000	1.000000E-4	1.605955E-4	1.605955
8.824000	1.000000E-4	1.612276E-4	1.612276
8.720000	1.000000E-4	1.612274E-4	1.612274
8.820000	1.000000E-4	1.607640E-4	1.607640
8.762000	1.000000E-4	1.607640E-4	1.607640
8.792000	1.000000E-4	1.611854E-4	1.611854
8.810000	1.000000E-4	1.612698E-4	1.612698
8.766000	1.000000E-4	1.615226E-4	1.615226
8.866000	1.000000E-4	1.612276E-4	1.612275
8.786000	1.000000E-4	1.612276E-4	1.612276
8.918000	1.000000E-4	1.612698E-4	1.612698
8.787000	1.000000E-4	1.605532E-4	1.605532
8.946000	1.000000E-4	1.607639E-4	1.607639
8.823000	1.000000E-4	1.598364E-4	1.598364
8.941000	1.000000E-4	1.601737E-4	1.601737
8.874000	1.000000E-4	1.612277E-4	1.612277
8.909000	1.000000E-4	1.603845E-4	1.603845
8.930000	1.000000E-4	1.609746E-4	1.609746
8.878000	1.000000E-4	1.602160E-4	1.602160
8.983000	1.000000E-4	1.606796E-4	1.606796
8.902000	1.000000E-4	1.605952E-4	1.605952
9.033000	1.000000E-4	1.613962E-4	1.613962
8.903000	1.000000E-4	1.609747E-4	1.609747
9.060000	1.000000E-4	1.612275E-4	1.612275
8.940000	1.000000E-4	1.606375E-4	1.606375
9.057000	1.000000E-4	1.605954E-4	1.605954
8.991000	1.000000E-4	1.609747E-4	1.609747
9.026000	1.000000E-4	1.607639E-4	1.607639
9.046000	1.000000E-4	1.604689E-4	1.604689
9.050000	1.000000E-4	1.599208E-4	1.599208
9.099000	1.000000E-4	1.608060E-4	1.608060
9.019000	1.000000E-4	1.607638E-4	1.607638
9.147000	1.000000E-4	1.603002E-4	1.603002
9.020000	1.000000E-4	1.604688E-4	1.604688
9.175000	1.000000E-4	1.611012E-4	1.611012
9.058000	1.000000E-4	1.600893E-4	1.600893
9.171000	1.000000E-4	1.611011E-4	1.611011
9.106000	1.000000E-4	1.608905E-4	1.608904
9.193000	1.000000E-4	1.598786E-4	1.598786
9.161000	1.000000E-4	1.604689E-4	1.604689
9.166000	1.000000E-4	1.604689E-4	1.604689
9.214000	1.000000E-4	1.602160E-4	1.602160
9.137000	1.000000E-4	1.597521E-4	1.597521
9.261000	1.000000E-4	1.600472E-4	1.600472
9.137000	1.000000E-4	1.602159E-4	1.602159
9.289000	1.000000E-4	1.612698E-4	1.612697
9.175000	1.000000E-4	1.604268E-4	1.604268
9.286000	1.000000E-4	1.603004E-4	1.603004
9.224000	1.000000E-4	1.592463E-4	1.592463
9.308000	1.000000E-4	1.601318E-4	1.601318
9.277000	1.000000E-4	1.598367E-4	1.598367
9.282000	1.000000E-4	1.596679E-4	1.596680
9.329000	1.000000E-4	1.603845E-4	1.603845
9.254000	1.000000E-4	1.598365E-4	1.598365
9.375000	1.000000E-4	1.603845E-4	1.603845
9.254000	1.000000E-4	1.596679E-4	1.596679
9.402000	1.000000E-4	1.601737E-4	1.601737
9.292000	1.000000E-4	1.603004E-4	1.603004
9.400000	1.000000E-4	1.604689E-4	1.604689
9.340000	1.000000E-4	1.594150E-4	1.594149
9.422000	1.000000E-4	1.599210E-4	1.599210
9.391000	1.000000E-4	1.605953E-4	1.605952
9.396000	1.000000E-4	1.594151E-4	1.594151
9.466000	1.000000E-4	1.603845E-4	1.603845
9.347000	1.000000E-4	1.595417E-4	1.595417
9.489000	1.000000E-4	1.595836E-4	1.595835
9.384000	1.000000E-4	1.594994E-4	1.594994
9.514000	1.000000E-4	1.598788E-4	1.598788
9.435000	1.000000E-4	1.591622E-4	1.591622
9.513000	1.000000E-4	1.603846E-4	1.603846
9.487000	1.000000E-4	1.595837E-4	1.595837
9.490000	1.000000E-4	1.597101E-4	1.597101
9.535000	1.000000E-4	1.600894E-4	1.600894
9.465000	1.000000E-4	1.597100E-4	1.597100
9.581000	1.000000E-4	1.594994E-4	1.594994
9.466000	1.000000E-4	1.590358E-4	1.590358
9.605000	1.000000E-4	1.599208E-4	1.599208
9.502000	1.000000E-4	1.591622E-4	1.591622
9.628000	1.000000E-4	1.595837E-4	1.595837
9.552000	1.000000E-4	1.600897E-4	1.600897
9.627000	1.000000E-4	1.604267E-4	1.604267
9.603000	1.000000E-4	1.600896E-4	1.600896
9.604000	1.000000E-4	1.603004E-4	1.603004
9.649000	1.000000E-4	1.601317E-4	1.601317
9.581000	1.000000E-4	1.598367E-4	1.598367
9.694000	1.000000E-4	1.588250E-4	1.588250
9.584000	1.000000E-4	1.583192E-4	1.583192
9.716000	1.000000E-4	1.600475E-4	1.600475
9.620000	1.000000E-4	1.598367E-4	1.598367
9.740000	1.000000E-4	1.597101E-4	1.597101
9.669000	1.000000E-4	1.592466E-4	1.592466
9.740000	1.000000E-4	1.599631E-4	1.599631
9.718000	1.000000E-4	1.597946E-4	1.597946
9.719000	1.000000E-4	1.592043E-4	1.592043
9.763000	1.000000E-4	1.602581E-4	1.602581
9.698000	1.000000E-4	1.589093E-4	1.589093
9.804000	1.000000E-4	1.592046E-4	1.592046
9.701000	1.000000E-4	1.597944E-4	1.597944
9.826000	1.000000E-4	1.592043E-4	1.592043
9.736000	1.000000E-4	1.600052E-4	1.600052
9.848000	1.000000E-4	1.590358E-4	1.590358
9.781000	1.000000E-4	1.594151E-4	1.594151
9.849000	1.000000E-4	1.589514E-4	1.589514
9.830000	1.000000E-4	1.592464E-4	1.592464
9.830000	1.000000E-4	1.585719E-4	1.585719
9.874000	1.000000E-4	1.588672E-4	1.588672
9.810000	1.000000E-4	1.589514E-4	1.589514
9.897000	1.000000E-4	1.594151E-4	1.594151
9.814000	1.000000E-4	1.599631E-4	1.599631
9.936000	1.000000E-4	1.589091E-4	1.589091
9.850000	1.000000E-4	1.588670E-4	1.588670
9.959000	1.000000E-4	1.594574E-4	1.594574
9.895000	1.000000E-4	1.593729E-4	1.593729
9.961000	1.000000E-4	1.594573E-4	1.594573
9.944000	1.000000E-4	1.586564E-4	1.586564
9.943000	1.000000E-4	1.588248E-4	1.588248
9.987000	1.000000E-4	1.599210E-4	1.599210
9.925000	1.000000E-4	1.580663E-4	1.580663
10.012000	1.000000E-4	1.591621E-4	1.591621
9.932000	1.000000E-4	1.590777E-4	1.590777
10.050000	1.000000E-4	1.590358E-4	1.590358
9.967000	1.000000E-4	1.588670E-4	1.588670
10.073000	1.000000E-4	1.589935E-4	1.589935
10.013000	1.000000E-4	1.591201E-4	1.591201
10.074000	1.000000E-4	1.582769E-4	1.582769
10.060000	1.000000E-4	1.589515E-4	1.589515
10.057000	1.000000E-4	1.578134E-4	1.578134
10.082000	1.000000E-4	1.589513E-4	1.589513
10.040000	1.000000E-4	1.592043E-4	1.592043
10.125000	1.000000E-4	1.590358E-4	1.590358
10.046000	1.000000E-4	1.589514E-4	1.589514
10.161000	1.000000E-4	1.597523E-4	1.597523
10.082000	1.000000E-4	1.582771E-4	1.582771
10.183000	1.000000E-4	1.585721E-4	1.585721
10.127000	1.000000E-4	1.583193E-4	1.583193
10.184000	1.000000E-4	1.586986E-4	1.586985
10.173000	1.000000E-4	1.589093E-4	1.589093
10.167000	1.000000E-4	1.594993E-4	1.594993
10.195000	1.000000E-4	1.586985E-4	1.586985
10.151000	1.000000E-4	1.598786E-4	1.598786
10.236000	1.000000E-4	1.582349E-4	1.582349
10.159000	1.000000E-4	1.584878E-4	1.584878
10.272000	1.000000E-4	1.586985E-4	1.586985
10.197000	1.000000E-4	1.581507E-4	1.581506
10.295000	1.000000E-4	1.590779E-4	1.590778
10.241000	1.000000E-4	1.585299E-4	1.585299
10.298000	1.000000E-4	1.579820E-4	1.579820
10.266000	1.000000E-4	1.581507E-4	1.581506
10.283000	1.000000E-4	1.583612E-4	1.583612
10.311000	1.000000E-4	1.587406E-4	1.587406
10.268000	1.000000E-4	1.586143E-4	1.586143
10.351000	1.000000E-4	1.581083E-4	1.581083
10.278000	1.000000E-4	1.587827E-4	1.587827
10.388000	1.000000E-4	1.578555E-4	1.578554
10.316000	1.000000E-4	1.582770E-4	1.582770
10.409000	1.000000E-4	1.584878E-4	1.584878
10.340000	1.000000E-4	1.583192E-4	1.583192
10.412000	1.000000E-4	1.582770E-4	1.582770
10.384000	1.000000E-4	1.587827E-4	1.587827
10.398000	1.000000E-4	1.581503E-4	1.581503
10.427000	1.000000E-4	1.581506E-4	1.581506
10.385000	1.000000E-4	1.580240E-4	1.580240
10.466000	1.000000E-4	1.578975E-4	1.578975
10.394000	1.000000E-4	1.587406E-4	1.587406
10.498000	1.000000E-4	1.579397E-4	1.579397
10.429000	1.000000E-4	1.584876E-4	1.584876
10.518000	1.000000E-4	1.578553E-4	1.578553
10.451000	1.000000E-4	1.581083E-4	1.581083
10.518000	1.000000E-4	1.581082E-4	1.581082
10.494000	1.000000E-4	1.588669E-4	1.588669
10.505000	1.000000E-4	1.572230E-4	1.572230
10.534000	1.000000E-4	1.574760E-4	1.574760
10.492000	1.000000E-4	1.584033E-4	1.584033
10.572000	1.000000E-4	1.579396E-4	1.579395
10.502000	1.000000E-4	1.578975E-4	1.578975
10.604000	1.000000E-4	1.561270E-4	1.561270
10.525000	1.000000E-4	1.574340E-4	1.574340
10.625000	1.000000E-4	1.579397E-4	1.579397
10.560000	1.000000E-4	1.575183E-4	1.575183
10.626000	1.000000E-4	1.578554E-4	1.578554
10.601000	1.000000E-4	1.578132E-4	1.578132
10.610000	1.000000E-4	1.579397E-4	1.579397
10.644000	1.000000E-4	1.578554E-4	1.578554
10.599000	1.000000E-4	1.566330E-4	1.566330
10.682000	1.000000E-4	1.571388E-4	1.571387
10.609000	1.000000E-4	1.578553E-4	1.578553
10.713000	1.000000E-4	1.574760E-4	1.574760
10.633000	1.000000E-4	1.569281E-4	1.569281
10.733000	1.000000E-4	1.565066E-4	1.565066
10.669000	1.000000E-4	1.568858E-4	1.568858
10.734000	1.000000E-4	1.579397E-4	1.579397
10.713000	1.000000E-4	1.576867E-4	1.576867
10.720000	1.000000E-4	1.574761E-4	1.574761
10.752000	1.000000E-4	1.570544E-4	1.570544
10.710000	1.000000E-4	1.573496E-4	1.573496
10.788000	1.000000E-4	1.576025E-4	1.576025
10.728000	1.000000E-4	1.570124E-4	1.570124
10.818000	1.000000E-4	1.569280E-4	1.569280
10.740000	1.000000E-4	1.573916E-4	1.573916
10.837000	1.000000E-4	1.577289E-4	1.577289
10.775000	1.000000E-4	1.574339E-4	1.574338
10.838000	1.000000E-4	1.573074E-4	1.573074
10.818000	1.000000E-4	1.564221E-4	1.564221
10.824000	1.000000E-4	1.577290E-4	1.577290
10.856000	1.000000E-4	1.562115E-4	1.562114
10.845000	1.000000E-4	1.570546E-4	1.570545
10.891000	1.000000E-4	1.573073E-4	1.573073
10.833000	1.000000E-4	1.569280E-4	1.569280
10.921000	1.000000E-4	1.563800E-4	1.563800
10.845000	1.000000E-4	1.569281E-4	1.569281
10.939000	1.000000E-4	1.562535E-4	1.562535
10.881000	1.000000E-4	1.569703E-4	1.569702
10.942000	1.000000E-4	1.573917E-4	1.573917
10.922000	1.000000E-4	1.570546E-4	1.570545
10.961000	1.000000E-4	1.568016E-4	1.568016
10.961000	1.000000E-4	1.566330E-4	1.566330
10.950000	1.000000E-4	1.570545E-4	1.570545
10.997000	1.000000E-4	1.573495E-4	1.573495
10.941000	1.000000E-4	1.565908E-4	1.565908
11.025000	1.000000E-4	1.567595E-4	1.567595
10.955000	1.000000E-4	1.569280E-4	1.569280
11.044000	1.000000E-4	1.561694E-4	1.561694
10.990000	1.000000E-4	1.567595E-4	1.567595
11.065000	1.000000E-4	1.567594E-4	1.567594
11.031000	1.000000E-4	1.572230E-4	1.572230
11.068000	1.000000E-4	1.566751E-4	1.566751
11.069000	1.000000E-4	1.568015E-4	1.568015
11.057000	1.000000E-4	1.563379E-4	1.563379
11.102000	1.000000E-4	1.567173E-4	1.567173
11.049000	1.000000E-4	1.557057E-4	1.557057
11.131000	1.000000E-4	1.574760E-4	1.574760
11.064000	1.000000E-4	1.561694E-4	1.561694
11.149000	1.000000E-4	1.571809E-4	1.571809
11.098000	1.000000E-4	1.563800E-4	1.563800
11.170000	1.000000E-4	1.562537E-4	1.562536
11.138000	1.000000E-4	1.567594E-4	1.567594
11.173000	1.000000E-4	1.560429E-4	1.560429
11.174000	1.000000E-4	1.574338E-4	1.574338
11.164000	1.000000E-4	1.560852E-4	1.560852
11.208000	1.000000E-4	1.563379E-4	1.563379
11.157000	1.000000E-4	1.554526E-4	1.554526
11.236000	1.000000E-4	1.569280E-4	1.569280
11.172000	1.000000E-4	1.557478E-4	1.557478
11.258000	1.000000E-4	1.561695E-4	1.561695
11.207000	1.000000E-4	1.564645E-4	1.564645
11.276000	1.000000E-4	1.568016E-4	1.568016
11.246000	1.000000E-4	1.558322E-4	1.558322
11.277000	1.000000E-4	1.557057E-4	1.557057
11.281000	1.000000E-4	1.556634E-4	1.556634
11.269000	1.000000E-4	1.553263E-4	1.553263
11.313000	1.000000E-4	1.563379E-4	1.563379
11.264000	1.000000E-4	1.557899E-4	1.557899
11.334000	1.000000E-4	1.560850E-4	1.560850
11.279000	1.000000E-4	1.561271E-4	1.561271
11.361000	1.000000E-4	1.559585E-4	1.559585
11.312000	1.000000E-4	1.553685E-4	1.553685
11.378000	1.000000E-4	1.562536E-4	1.562536
11.351000	1.000000E-4	1.550311E-4	1.550311
11.381000	1.000000E-4	1.557478E-4	1.557478
11.385000	1.000000E-4	1.560429E-4	1.560429
11.374000	1.000000E-4	1.557899E-4	1.557899
11.407000	1.000000E-4	1.560008E-4	1.560007
11.371000	1.000000E-4	1.549048E-4	1.549048
11.439000	1.000000E-4	1.551576E-4	1.551576
11.387000	1.000000E-4	1.557900E-4	1.557900
11.467000	1.000000E-4	1.551156E-4	1.551156
11.422000	1.000000E-4	1.557900E-4	1.557899
11.484000	1.000000E-4	1.550733E-4	1.550733
11.460000	1.000000E-4	1.556213E-4	1.556213
11.489000	1.000000E-4	1.556214E-4	1.556213
11.482000	1.000000E-4	1.550735E-4	1.550734
11.484000	1.000000E-4	1.556214E-4	1.556213
11.516000	1.000000E-4	1.552840E-4	1.552840
11.481000	1.000000E-4	1.557057E-4	1.557057
11.548000	1.000000E-4	1.555370E-4	1.555370
11.499000	1.000000E-4	1.550313E-4	1.550313
11.576000	1.000000E-4	1.548625E-4	1.548625
11.535000	1.000000E-4	1.549891E-4	1.549891
11.596000	1.000000E-4	1.558321E-4	1.558321
11.573000	1.000000E-4	1.544412E-4	1.544412
11.603000	1.000000E-4	1.549891E-4	1.549891
11.596000	1.000000E-4	1.554106E-4	1.554105
11.599000	1.000000E-4	1.549468E-4	1.549468
11.639000	1.000000E-4	1.553683E-4	1.553683
11.598000	1.000000E-4	1.551155E-4	1.551155
11.677000	1.000000E-4	1.551577E-4	1.551577
11.620000	1.000000E-4	1.542303E-4	1.542303
11.710000	1.000000E-4	1.552841E-4	1.552841
11.660000	1.000000E-4	1.548205E-4	1.548205
11.731000	1.000000E-4	1.549469E-4	1.549469
11.704000	1.000000E-4	1.546939E-4	1.546939
11.739000	1.000000E-4	1.548627E-4	1.548626
11.731000	1.000000E-4	1.552421E-4	1.552421
11.733000	1.000000E-4	1.549892E-4	1.549891
11.772000	1.000000E-4	1.552843E-4	1.552843
11.732000	1.000000E-4	1.557057E-4	1.557057
11.809000	1.000000E-4	1.555370E-4	1.555370
11.753000	1.000000E-4	1.545254E-4	1.545254
11.840000	1.000000E-4	1.546096E-4	1.546096
11.792000	1.000000E-4	1.547362E-4	1.547362
11.861000	1.000000E-4	1.548625E-4	1.548625
11.834000	1.000000E-4	1.553685E-4	1.553685
11.867000	1.000000E-4	1.547783E-4	1.547783
11.860000	1.000000E-4	1.546940E-4	1.546940
11.861000	1.000000E-4	1.547783E-4	1.547783
11.897000	1.000000E-4	1.552841E-4	1.552841
11.858000	1.000000E-4	1.546940E-4	1.546940
11.933000	1.000000E-4	1.551156E-4	1.551156
11.880000	1.000000E-4	1.542303E-4	1.542303
11.965000	1.000000E-4	1.544832E-4	1.544832
11.921000	1.000000E-4	1.539775E-4	1.539775
11.988000	1.000000E-4	1.544832E-4	1.544832
11.949000	1.000000E-4	1.543989E-4	1.543989
11.997000	1.000000E-4	1.542303E-4	1.542303
11.994000	1.000000E-4	1.543989E-4	1.543989
11.997000	1.000000E-4	1.541881E-4	1.541881
12.037000	1.000000E-4	1.535558E-4	1.535558
12.004000	1.000000E-4	1.530079E-4	1.530079
12.078000	1.000000E-4	1.543989E-4	1.543989
12.031000	1.000000E-4	1.541039E-4	1.541039
12.115000	1.000000E-4	1.538088E-4	1.538087
12.075000	1.000000E-4	1.544832E-4	1.544832
12.143000	1.000000E-4	1.543988E-4	1.543988
12.110000	1.000000E-4	1.541039E-4	1.541039
12.158000	1.000000E-4	1.543568E-4	1.543567
12.162000	1.000000E-4	1.542725E-4	1.542725
12.165000	1.000000E-4	1.538510E-4	1.538510
12.206000	1.000000E-4	1.538088E-4	1.538088
12.174000	1.000000E-4	1.543568E-4	1.543568
12.246000	1.000000E-4	1.535138E-4	1.535138
12.201000	1.000000E-4	1.534295E-4	1.534294
12.283000	1.000000E-4	1.534295E-4	1.534294
12.235000	1.000000E-4	1.537246E-4	1.537246
12.310000	1.000000E-4	1.534716E-4	1.534716
12.282000	1.000000E-4	1.527129E-4	1.527129
12.325000	1.000000E-4	1.534295E-4	1.534294
12.329000	1.000000E-4	1.532187E-4	1.532187
12.330000	1.000000E-4	1.532187E-4	1.532187
12.372000	1.000000E-4	1.538511E-4	1.538510
12.339000	1.000000E-4	1.531344E-4	1.531344
12.410000	1.000000E-4	1.537244E-4	1.537244
12.367000	1.000000E-4	1.530922E-4	1.530922
12.444000	1.000000E-4	1.535559E-4	1.535559
12.399000	1.000000E-4	1.534716E-4	1.534716
12.470000	1.000000E-4	1.530502E-4	1.530501
12.443000	1.000000E-4	1.530079E-4	1.530079
12.482000	1.000000E-4	1.533030E-4	1.533030
12.487000	1.000000E-4	1.533030E-4	1.533030
12.488000	1.000000E-4	1.533451E-4	1.533451
12.528000	1.000000E-4	1.529236E-4	1.529236
12.498000	1.000000E-4	1.536402E-4	1.536402
12.565000	1.000000E-4	1.532187E-4	1.532187
12.530000	1.000000E-4	1.532609E-4	1.532609
12.597000	1.000000E-4	1.538089E-4	1.538088
12.555000	1.000000E-4	1.523757E-4	1.523757
12.622000	1.000000E-4	1.531344E-4	1.531344
12.595000	1.000000E-4	1.525021E-4	1.525021
12.632000	1.000000E-4	1.523336E-4	1.523336
12.637000	1.000000E-4	1.529658E-4	1.529658
12.637000	1.000000E-4	1.527971E-4	1.527971
12.677000	1.000000E-4	1.527129E-4	1.527129
12.647000	1.000000E-4	1.527129E-4	1.527129
12.711000	1.000000E-4	1.532187E-4	1.532187
12.675000	1.000000E-4	1.519120E-4	1.519120
12.741000	1.000000E-4	1.523335E-4	1.523335
12.698000	1.000000E-4	1.524177E-4	1.524177
12.760000	1.000000E-4	1.525021E-4	1.525021
12.737000	1.000000E-4	1.522491E-4	1.522491
12.772000	1.000000E-4	1.527973E-4	1.527972
12.778000	1.000000E-4	1.517433E-4	1.517433
12.777000	1.000000E-4	1.523334E-4	1.523334
12.814000	1.000000E-4	1.521228E-4	1.521228
12.804000	1.000000E-4	1.518277E-4	1.518277
12.847000	1.000000E-4	1.514062E-4	1.514061
12.812000	1.000000E-4	1.514484E-4	1.514484
12.875000	1.000000E-4	1.519120E-4	1.519120
12.835000	1.000000E-4	1.522493E-4	1.522493
12.894000	1.000000E-4	1.519964E-4	1.519964
12.873000	1.000000E-4	1.521650E-4	1.521650
12.905000	1.000000E-4	1.517012E-4	1.517012
12.911000	1.000000E-4	1.523757E-4	1.523757
12.934000	1.000000E-4	1.517012E-4	1.517012
12.949000	1.000000E-4	1.513642E-4	1.513642
12.936000	1.000000E-4	1.514064E-4	1.514064
12.982000	1.000000E-4	1.516592E-4	1.516591
12.944000	1.000000E-4	1.514063E-4	1.514063
13.011000	1.000000E-4	1.524179E-4	1.524179
12.970000	1.000000E-4	1.513640E-4	1.513640
13.033000	1.000000E-4	1.511955E-4	1.511955
13.010000	1.000000E-4	1.509424E-4	1.509424
13.043000	1.000000E-4	1.524179E-4	1.524179
13.050000	1.000000E-4	1.515326E-4	1.515326
13.070000	1.000000E-4	1.516591E-4	1.516591
13.086000	1.000000E-4	1.514904E-4	1.514904
13.073000	1.000000E-4	1.516592E-4	1.516592
13.119000	1.000000E-4	1.512798E-4	1.512798
13.082000	1.000000E-4	1.509003E-4	1.509003
13.145000	1.000000E-4	1.516592E-4	1.516591
13.105000	1.000000E-4	1.511112E-4	1.511112
13.164000	1.000000E-4	1.511111E-4	1.511111
13.144000	1.000000E-4	1.514905E-4	1.514905
13.189000	1.000000E-4	1.518276E-4	1.518277
13.183000	1.000000E-4	1.514061E-4	1.514061
13.201000	1.000000E-4	1.517014E-4	1.517014
13.217000	1.000000E-4	1.513643E-4	1.513643
13.204000	1.000000E-4	1.512798E-4	1.512798
13.246000	1.000000E-4	1.511113E-4	1.511112
13.210000	1.000000E-4	1.506475E-4	1.506475
13.271000	1.000000E-4	1.511953E-4	1.511953
13.234000	1.000000E-4	1.512797E-4	1.512797
13.296000	1.000000E-4	1.511533E-4	1.511533
13.268000	1.000000E-4	1.506895E-4	1.506895
13.312000	1.000000E-4	1.517434E-4	1.517434
13.304000	1.000000E-4	1.513219E-4	1.513219
13.319000	1.000000E-4	1.501839E-4	1.501839
13.334000	1.000000E-4	1.510691E-4	1.510690
13.321000	1.000000E-4	1.508582E-4	1.508582
13.364000	1.000000E-4	1.507318E-4	1.507318
13.329000	1.000000E-4	1.502682E-4	1.502682
13.386000	1.000000E-4	1.512797E-4	1.512797
13.350000	1.000000E-4	1.510270E-4	1.510270
13.410000	1.000000E-4	1.505632E-4	1.505632
13.384000	1.000000E-4	1.513219E-4	1.513219
13.426000	1.000000E-4	1.507318E-4	1.507318
13.419000	1.000000E-4	1.505210E-4	1.505210
13.433000	1.000000E-4	1.503946E-4	1.503946
13.448000	1.000000E-4	1.505632E-4	1.505632
13.434000	1.000000E-4	1.505210E-4	1.505210
13.475000	1.000000E-4	1.506475E-4	1.506475
13.442000	1.000000E-4	1.500574E-4	1.500574
13.496000	1.000000E-4	1.500995E-4	1.500995
13.462000	1.000000E-4	1.504367E-4	1.504367
13.519000	1.000000E-4	1.504789E-4	1.504789
13.495000	1.000000E-4	1.514063E-4	1.514063
13.536000	1.000000E-4	1.508161E-4	1.508161
13.529000	1.000000E-4	1.496359E-4	1.496359
13.544000	1.000000E-4	1.506054E-4	1.506054
13.560000	1.000000E-4	1.501839E-4	1.501839
13.546000	1.000000E-4	1.501418E-4	1.501418
13.584000	1.000000E-4	1.498465E-4	1.498466
13.556000	1.000000E-4	1.499731E-4	1.499731
13.608000	1.000000E-4	1.505632E-4	1.505632
13.578000	1.000000E-4	1.505210E-4	1.505210
13.633000	1.000000E-4	1.503524E-4	1.503524
13.611000	1.000000E-4	1.500154E-4	1.500154
13.650000	1.000000E-4	1.496360E-4	1.496360
13.646000	1.000000E-4	1.503525E-4	1.503525
13.659000	1.000000E-4	1.498045E-4	1.498044
13.677000	1.000000E-4	1.501839E-4	1.501839
13.663000	1.000000E-4	1.486243E-4	1.486243
13.701000	1.000000E-4	1.490458E-4	1.490457
13.673000	1.000000E-4	1.501838E-4	1.501838
13.726000	1.000000E-4	1.495938E-4	1.495938
13.695000	1.000000E-4	1.507318E-4	1.507318
13.747000	1.000000E-4	1.490877E-4	1.490877
13.727000	1.000000E-4	1.495937E-4	1.495937
13.762000	1.000000E-4	1.495516E-4	1.495516
13.759000	1.000000E-4	1.497623E-4	1.497623
13.771000	1.000000E-4	1.501839E-4	1.501839
13.782000	1.000000E-4	1.503103E-4	1.503103
13.777000	1.000000E-4	1.505210E-4	1.505210
13.813000	1.000000E-4	1.498045E-4	1.498045
13.786000	1.000000E-4	1.493830E-4	1.493830
13.836000	1.000000E-4	1.496360E-4	1.496360
13.809000	1.000000E-4	1.495937E-4	1.495937
13.858000	1.000000E-4	1.493408E-4	1.493408
13.840000	1.000000E-4	1.492988E-4	1.492988
13.875000	1.000000E-4	1.492565E-4	1.492565
13.872000	1.000000E-4	1.492145E-4	1.492145
13.883000	1.000000E-4	1.495516E-4	1.495516
13.893000	1.000000E-4	1.493829E-4	1.493829
13.888000	1.000000E-4	1.489194E-4	1.489194
13.923000	1.000000E-4	1.499731E-4	1.499731
13.898000	1.000000E-4	1.500152E-4	1.500152
13.948000	1.000000E-4	1.496781E-4	1.496781
13.921000	1.000000E-4	1.492144E-4	1.492144
13.969000	1.000000E-4	1.490457E-4	1.490457
13.952000	1.000000E-4	1.504369E-4	1.504368
13.985000	1.000000E-4	1.490879E-4	1.490879
13.975000	1.000000E-4	1.488351E-4	1.488351
13.992000	1.000000E-4	1.493408E-4	1.493408
14.003000	1.000000E-4	1.493408E-4	1.493408
13.998000	1.000000E-4	1.489614E-4	1.489614
14.032000	1.000000E-4	1.490458E-4	1.490458
14.008000	1.000000E-4	1.492566E-4	1.492566
14.055000	1.000000E-4	1.494673E-4	1.494673
14.029000	1.000000E-4	1.481183E-4	1.481183
14.075000	1.000000E-4	1.495094E-4	1.495094
14.059000	1.000000E-4	1.484556E-4	1.484556
14.090000	1.000000E-4	1.489614E-4	1.489614
14.082000	1.000000E-4	1.491723E-4	1.491723
14.098000	1.000000E-4	1.488350E-4	1.488349
14.109000	1.000000E-4	1.487507E-4	1.487507
14.103000	1.000000E-4	1.483292E-4	1.483292
14.137000	1.000000E-4	1.485822E-4	1.485822
14.114000	1.000000E-4	1.487506E-4	1.487506
14.161000	1.000000E-4	1.484135E-4	1.484135
14.136000	1.000000E-4	1.487928E-4	1.487928
14.182000	1.000000E-4	1.492565E-4	1.492565
14.157000	1.000000E-4	1.484555E-4	1.484555
14.197000	1.000000E-4	1.482027E-4	1.482027
14.190000	1.000000E-4	1.487087E-4	1.487086
14.205000	1.000000E-4	1.490880E-4	1.490880
14.219000	1.000000E-4	1.485821E-4	1.485821
14.212000	1.000000E-4	1.484135E-4	1.484135
14.245000	1.000000E-4	1.479921E-4	1.479921
14.223000	1.000000E-4	1.482449E-4	1.482449
14.269000	1.000000E-4	1.484979E-4	1.484978
14.245000	1.000000E-4	1.482872E-4	1.482872
14.289000	1.000000E-4	1.488771E-4	1.488771
14.267000	1.000000E-4	1.476127E-4	1.476127
14.306000	1.000000E-4	1.488772E-4	1.488772
14.300000	1.000000E-4	1.482871E-4	1.482870
14.315000	1.000000E-4	1.484556E-4	1.484556
14.328000	1.000000E-4	1.483713E-4	1.483713
14.323000	1.000000E-4	1.483713E-4	1.483713
14.354000	1.000000E-4	1.483292E-4	1.483292
14.334000	1.000000E-4	1.479077E-4	1.479077
14.378000	1.000000E-4	1.481184E-4	1.481184
14.357000	1.000000E-4	1.487506E-4	1.487506
14.397000	1.000000E-4	1.479921E-4	1.479921
14.377000	1.000000E-4	1.482027E-4	1.482027
14.412000	1.000000E-4	1.480762E-4	1.480762
14.405000	1.000000E-4	1.483713E-4	1.483713
14.419000	1.000000E-4	1.479499E-4	1.479499
14.432000	1.000000E-4	1.482870E-4	1.482870
14.426000	1.000000E-4	1.482871E-4	1.482871
14.458000	1.000000E-4	1.487930E-4	1.487930
14.448000	1.000000E-4	1.484978E-4	1.484978
14.483000	1.000000E-4	1.476128E-4	1.476128
14.461000	1.000000E-4	1.479920E-4	1.479920
14.502000	1.000000E-4	1.476127E-4	1.476127
14.480000	1.000000E-4	1.483292E-4	1.483292
14.517000	1.000000E-4	1.479076E-4	1.479076
14.511000	1.000000E-4	1.478657E-4	1.478657
14.524000	1.000000E-4	1.475284E-4	1.475284
14.538000	1.000000E-4	1.473176E-4	1.473176
14.530000	1.000000E-4	1.476547E-4	1.476547
14.561000	1.000000E-4	1.476547E-4	1.476547
14.549000	1.000000E-4	1.477390E-4	1.477390
14.583000	1.000000E-4	1.478235E-4	1.478235
14.563000	1.000000E-4	1.481606E-4	1.481606
14.603000	1.000000E-4	1.470225E-4	1.470225
14.582000	1.000000E-4	1.476970E-4	1.476970
14.615000	1.000000E-4	1.473597E-4	1.473597
14.611000	1.000000E-4	1.468539E-4	1.468539
14.625000	1.000000E-4	1.482027E-4	1.482026
14.638000	1.000000E-4	1.476971E-4	1.476970
14.646000	1.000000E-4	1.472332E-4	1.472332
14.663000	1.000000E-4	1.471068E-4	1.471068
14.652000	1.000000E-4	1.469382E-4	1.469382
14.687000	1.000000E-4	1.480763E-4	1.480763
14.668000	1.000000E-4	1.474440E-4	1.474440
14.706000	1.000000E-4	1.476126E-4	1.476126
14.690000	1.000000E-4	1.474441E-4	1.474441
14.723000	1.000000E-4	1.467274E-4	1.467274
14.719000	1.000000E-4	1.472754E-4	1.472754
14.745000	1.000000E-4	1.470646E-4	1.470646
14.747000	1.000000E-4	1.472755E-4	1.472755
14.755000	1.000000E-4	1.479077E-4	1.479077
14.773000	1.000000E-4	1.467276E-4	1.467276
14.762000	1.000000E-4	1.471912E-4	1.471912
14.797000	1.000000E-4	1.477391E-4	1.477391
14.780000	1.000000E-4	1.465166E-4	1.465166
14.819000	1.000000E-4	1.475283E-4	1.475283
14.802000	1.000000E-4	1.479498E-4	1.479498
14.833000	1.000000E-4	1.461795E-4	1.461795
14.831000	1.000000E-4	1.469804E-4	1.469804
14.855000	1.000000E-4	1.468961E-4	1.468960
14.860000	1.000000E-4	1.466432E-4	1.466432
14.869000	1.000000E-4	1.463902E-4	1.463901
14.885000	1.000000E-4	1.474019E-4	1.474019
14.876000	1.000000E-4	1.475705E-4	1.475705
14.910000	1.000000E-4	1.468963E-4	1.468963
14.891000	1.000000E-4	1.475705E-4	1.475705
14.929000	1.000000E-4	1.466855E-4	1.466855
14.915000	1.000000E-4	1.463059E-4	1.463059
14.951000	1.000000E-4	1.467696E-4	1.467696
14.942000	1.000000E-4	1.466854E-4	1.466854
14.965000	1.000000E-4	1.467696E-4	1.467696
14.970000	1.000000E-4	1.464323E-4	1.464323
14.978000	1.000000E-4	1.466854E-4	1.466854
14.996000	1.000000E-4	1.461794E-4	1.461794
14.986000	1.000000E-4	1.475283E-4	1.475283
15.018000	1.000000E-4	1.463480E-4	1.463480
15.002000	1.000000E-4	1.462638E-4	1.462638
15.039000	1.000000E-4	1.463903E-4	1.463903
15.024000	1.000000E-4	1.466010E-4	1.466010
15.059000	1.000000E-4	1.463902E-4	1.463902
15.050000	1.000000E-4	1.461374E-4	1.461374
15.071000	1.000000E-4	1.466012E-4	1.466012
15.078000	1.000000E-4	1.467696E-4	1.467696
15.086000	1.000000E-4	1.471069E-4	1.471068
15.102000	1.000000E-4	1.464324E-4	1.464324
15.093000	1.000000E-4	1.468961E-4	1.468961
15.123000	1.000000E-4	1.463060E-4	1.463059
15.108000	1.000000E-4	1.462217E-4	1.462217
15.145000	1.000000E-4	1.466854E-4	1.466854
15.131000	1.000000E-4	1.466855E-4	1.466855
15.165000	1.000000E-4	1.469804E-4	1.469804
15.156000	1.000000E-4	1.464744E-4	1.464744
15.177000	1.000000E-4	1.463902E-4	1.463902
15.182000	1.000000E-4	1.463903E-4	1.463903
15.188000	1.000000E-4	1.463480E-4	1.463480
15.205000	1.000000E-4	1.473177E-4	1.473176
15.197000	1.000000E-4	1.465169E-4	1.465169
15.227000	1.000000E-4	1.466010E-4	1.466010
15.213000	1.000000E-4	1.470647E-4	1.470646
15.248000	1.000000E-4	1.464746E-4	1.464746
15.236000	1.000000E-4	1.470225E-4	1.470225
15.270000	1.000000E-4	1.459265E-4	1.459265
15.263000	1.000000E-4	1.466432E-4	1.466432
15.281000	1.000000E-4	1.460530E-4	1.460530
15.289000	1.000000E-4	1.472333E-4	1.472333
15.295000	1.000000E-4	1.464324E-4	1.464324
15.311000	1.000000E-4	1.468119E-4	1.468119
15.307000	1.000000E-4	1.465166E-4	1.465166
15.336000	1.000000E-4	1.468960E-4	1.468960
15.323000	1.000000E-4	1.460952E-4	1.460952
15.357000	1.000000E-4	1.465588E-4	1.465588
15.347000	1.000000E-4	1.466011E-4	1.466011
15.378000	1.000000E-4	1.459687E-4	1.459687
15.373000	1.000000E-4	1.463060E-4	1.463059
15.390000	1.000000E-4	1.466854E-4	1.466854
15.399000	1.000000E-4	1.455472E-4	1.455472
15.402000	1.000000E-4	1.471910E-4	1.471910
15.420000	1.000000E-4	1.462216E-4	1.462216
15.414000	1.000000E-4	1.467275E-4	1.467275
15.444000	1.000000E-4	1.463481E-4	1.463481
15.431000	1.000000E-4	1.462217E-4	1.462217
15.464000	1.000000E-4	1.460530E-4	1.460530
15.454000	1.000000E-4	1.464747E-4	1.464746
15.484000	1.000000E-4	1.468961E-4	1.468961
15.480000	1.000000E-4	1.460532E-4	1.460532
15.496000	1.000000E-4	1.452100E-4	1.452100
15.506000	1.000000E-4	1.458002E-4	1.458002
15.509000	1.000000E-4	1.423860E-4	1.423860
15.527000	1.000000E-4	1.444513E-4	1.444513
15.519000	1.000000E-4	1.374543E-4	1.374543
15.549000	1.000000E-4	1.393089E-4	1.393089
15.537000	1.000000E-4	1.302464E-4	1.302464
15.569000	1.000000E-4	1.278860E-4	1.278860
15.559000	1.000000E-4	1.220271E-4	1.220271
15.589000	1.000000E-4	1.103934E-4	1.103934
15.585000	1.000000E-4	1.127960E-4	1.127960
15.601000	1.000000E-4	9.167836E-5	0.916784
15.606000	1.000000E-4	9.913904E-5	0.991390
15.611000	1.000000E-4	7.684125E-5	0.768412
15.629000	1.000000E-4	8.375396E-5	0.837540
15.624000	1.000000E-4	6.524968E-5	0.652497
15.653000	1.000000E-4	6.866393E-5	0.686639
15.640000	1.000000E-4	5.804196E-5	0.580420
15.670000	1.000000E-4	5.576568E-5	0.557657
15.662000	1.000000E-4	5.138218E-5	0.513822
15.690000	1.000000E-4	4.442716E-5	0.444272
15.684000	1.000000E-4	4.510153E-5	0.451015
15.704000	1.000000E-4	3.528037E-5	0.352804
15.709000	1.000000E-4	3.839953E-5	0.383995
15.715000	1.000000E-4	2.954789E-5	0.295479
15.733000	1.000000E-4	3.182405E-5	0.318240
15.727000	1.000000E-4	2.554346E-5	0.255435
15.755000	1.000000E-4	2.638652E-5	0.263865
15.745000	1.000000E-4	2.263511E-5	0.226351
15.775000	1.000000E-4	2.191846E-5	0.219185
15.767000	1.000000E-4	2.153922E-5	0.215392
15.796000	1.000000E-4	1.938941E-5	0.193894
15.790000	1.000000E-4	1.871506E-5	0.187151
15.810000	1.000000E-4	1.719755E-5	0.171976
15.816000	1.000000E-4	1.694471E-5	0.169447
15.822000	1.000000E-4	1.610164E-5	0.161016
15.841000	1.000000E-4	1.618587E-5	0.161859
15.835000	1.000000E-4	1.374117E-5	0.137412
15.866000	1.000000E-4	1.475287E-5	0.147529
15.856000	1.000000E-4	1.390986E-5	0.139099
15.884000	1.000000E-4	1.353050E-5	0.135305
15.877000	1.000000E-4	1.374123E-5	0.137412
15.905000	1.000000E-4	1.302463E-5	0.130246
15.901000	1.000000E-4	1.251889E-5	0.125189
15.920000	1.000000E-4	1.222375E-5	0.122238
15.928000	1.000000E-4	1.197084E-5	0.119708
15.933000	1.000000E-4	1.159149E-5	0.115915
15.951000	1.000000E-4	1.239251E-5	0.123925
15.948000	1.000000E-4	1.188659E-5	0.118866
15.977000	1.000000E-4	1.192877E-5	0.119288
15.970000	1.000000E-4	1.171806E-5	0.117181
15.997000	1.000000E-4	1.154938E-5	0.115494
15.990000	1.000000E-4	1.184438E-5	0.118444
16.018000	1.000000E-4	1.121224E-5	0.112122
16.015000	1.000000E-4	1.062197E-5	0.106220
16.036000	1.000000E-4	1.133860E-5	0.113386
16.045000	1.000000E-4	1.049564E-5	0.104956
16.050000	1.000000E-4	1.074837E-5	0.107484
16.069000	1.000000E-4	1.138073E-5	0.113807
16.065000	1.000000E-4	1.045340E-5	0.104534
16.097000	1.000000E-4	1.104351E-5	0.110435
16.090000	1.000000E-4	1.053773E-5	0.105377
16.119000	1.000000E-4	1.066417E-5	0.106642
16.110000	1.000000E-4	1.079070E-5	0.107907
16.139000	1.000000E-4	1.070634E-5	0.107063
16.136000	1.000000E-4	1.028483E-5	0.102848
16.156000	1.000000E-4	1.184447E-5	0.118445
16.166000	1.000000E-4	1.091710E-5	0.109171
16.169000	1.000000E-4	1.074850E-5	0.107485
16.189000	1.000000E-4	1.112779E-5	0.111278
16.193000	1.000000E-4	1.015836E-5	0.101584
16.215000	1.000000E-4	1.108578E-5	0.110858
16.207000	1.000000E-4	1.117007E-5	0.111701
16.236000	1.000000E-4	1.087495E-5	0.108750
16.227000	1.000000E-4	1.074845E-5	0.107485
16.253000	1.000000E-4	1.117006E-5	0.111701
16.251000	1.000000E-4	1.079068E-5	0.107907
16.269000	1.000000E-4	1.150723E-5	0.115072
16.279000	1.000000E-4	1.104351E-5	0.110435
16.282000	1.000000E-4	1.100133E-5	0.110013
16.301000	1.000000E-4	1.020050E-5	0.102005
16.305000	1.000000E-4	1.108565E-5	0.110856
16.325000	1.000000E-4	1.154948E-5	0.115495
16.318000	1.000000E-4	1.129646E-5	0.112965
16.345000	1.000000E-4	1.015834E-5	0.101583
16.337000	1.000000E-4	1.100148E-5	0.110015
16.362000	1.000000E-4	1.007405E-5	0.100740
16.359000	1.000000E-4	1.041131E-5	0.104113
16.377000	1.000000E-4	1.062205E-5	0.106220
16.386000	1.000000E-4	1.129648E-5	0.112965
16.397000	1.000000E-4	1.104355E-5	0.110435
16.409000	1.000000E-4	1.041126E-5	0.104113
16.409000	1.000000E-4	1.087500E-5	0.108750
16.429000	1.000000E-4	1.057991E-5	0.105799
16.422000	1.000000E-4	1.121210E-5	0.112121
16.449000	1.000000E-4	1.091717E-5	0.109172
16.442000	1.000000E-4	1.091714E-5	0.109171
16.466000	1.000000E-4	1.049551E-5	0.104955
16.463000	1.000000E-4	1.079069E-5	0.107907
16.488000	1.000000E-4	1.057987E-5	0.105799
16.492000	1.000000E-4	1.049566E-5	0.104957
16.503000	1.000000E-4	1.007403E-5	0.100740
16.513000	1.000000E-4	1.133871E-5	0.113387
16.515000	1.000000E-4	1.032691E-5	0.103269
16.538000	1.000000E-4	1.049560E-5	0.104956
16.530000	1.000000E-4	1.057995E-5	0.105799
16.558000	1.000000E-4	1.062208E-5	0.106221
16.552000	1.000000E-4	1.053774E-5	0.105377
16.579000	1.000000E-4	1.053776E-5	0.105378
16.574000	1.000000E-4	1.121225E-5	0.112122
16.590000	1.000000E-4	1.087493E-5	0.108749
16.601000	1.000000E-4	1.070632E-5	0.107063
16.604000	1.000000E-4	1.007410E-5	0.100741
16.625000	1.000000E-4	1.066413E-5	0.106641
16.619000	1.000000E-4	1.062211E-5	0.106221
16.643000	1.000000E-4	9.863268E-6	0.098633
16.640000	1.000000E-4	1.104353E-5	0.110435
16.664000	1.000000E-4	9.863345E-6	0.098633
16.663000	1.000000E-4	9.905461E-6	0.099055
16.685000	1.000000E-4	1.066413E-5	0.106641
16.691000	1.000000E-4	1.129648E-5	0.112965
16.700000	1.000000E-4	9.568241E-6	0.095682
16.713000	1.000000E-4	1.015843E-5	0.101584
16.716000	1.000000E-4	1.108566E-5	0.110857
16.736000	1.000000E-4	1.032685E-5	0.103268
16.731000	1.000000E-4	1.041131E-5	0.104113
16.755000	1.000000E-4	1.074857E-5	0.107486
16.751000	1.000000E-4	1.057991E-5	0.105799
16.779000	1.000000E-4	1.129648E-5	0.112965
16.774000	1.000000E-4	1.079065E-5	0.107907
16.796000	1.000000E-4	1.104364E-5	0.110436
16.802000	1.000000E-4	1.062202E-5	0.106220
16.812000	1.000000E-4	1.079062E-5	0.107906
16.821000	1.000000E-4	1.057991E-5	0.105799
16.826000	1.000000E-4	1.020060E-5	0.102006
16.845000	1.000000E-4	1.083285E-5	0.108328
16.842000	1.000000E-4	1.053780E-5	0.105378
16.868000	1.000000E-4	1.091715E-5	0.109171
16.863000	1.000000E-4	1.049560E-5	0.104956
16.889000	1.000000E-4	1.070626E-5	0.107063
16.884000	1.000000E-4	1.058004E-5	0.105800
16.907000	1.000000E-4	9.989745E-6	0.099897
16.913000	1.000000E-4	1.045351E-5	0.104535
16.922000	1.000000E-4	1.095930E-5	0.109593
16.933000	1.000000E-4	1.032705E-5	0.103270
16.937000	1.000000E-4	1.053781E-5	0.105378
16.956000	1.000000E-4	1.070631E-5	0.107063
16.952000	1.000000E-4	1.087498E-5	0.108750
16.979000	1.000000E-4	1.112797E-5	0.111280
16.973000	1.000000E-4	1.049561E-5	0.104956
16.998000	1.000000E-4	1.053777E-5	0.105378
16.995000	1.000000E-4	1.011626E-5	0.101163