TempA(K)	Current(A)	Voltage(V)	R(ohm)
17.151000	1.000000E-6	2.500000E-11	0.000025
17.132000	1.000000E-6	-8.422000E-8	-0.084220
17.096000	1.000000E-6	2.529800E-7	0.252980
17.019000	1.000000E-6	2.107300E-7	0.210730
16.944000	1.000000E-6	5.058250E-7	0.505825
16.850000	1.000000E-6	-1.000000E-11	-0.000010
16.751000	1.000000E-6	8.434500E-8	0.084345
16.619000	1.000000E-6	-6.500000E-11	-0.000065
16.524000	1.000000E-6	5.000000E-12	0.000005
16.392000	1.000000E-6	5.902300E-7	0.590230
16.272000	1.000000E-6	2.107600E-7	0.210760
16.144000	1.000000E-6	-2.950550E-7	-0.295055
16.000000	1.000000E-6	3.371500E-7	0.337150
15.895000	1.000000E-6	-3.372050E-7	-0.337205
15.759000	1.000000E-6	-8.426000E-8	-0.084260
15.652000	1.000000E-6	5.901350E-7	0.590135
15.475000	1.000000E-6	9.695450E-7	0.969545
15.394000	1.000000E-6	8.008200E-7	0.800820
15.220000	1.000000E-6	9.694700E-7	0.969470
15.124000	1.000000E-6	1.264515E-6	1.264515
14.967000	1.000000E-6	1.095930E-6	1.095930
14.841000	1.000000E-6	1.264540E-6	1.264540
14.708000	1.000000E-6	1.643945E-6	1.643945
14.552000	1.000000E-6	1.180265E-6	1.180265
TempA(K)	Current(A)	Voltage(V)	R(ohm)
6.063000	1.000000E-4	1.649788E-4	1.649788
5.989000	1.000000E-4	1.648101E-4	1.648101
5.973000	1.000000E-4	1.648103E-4	1.648103
5.990000	1.000000E-4	1.645574E-4	1.645574
5.894000	1.000000E-4	1.647681E-4	1.647681
5.991000	1.000000E-4	1.647681E-4	1.647681
5.855000	1.000000E-4	1.649788E-4	1.649788
5.982000	1.000000E-4	1.649368E-4	1.649367
5.812000	1.000000E-4	1.649366E-4	1.649366
5.949000	1.000000E-4	1.648524E-4	1.648524
5.796000	1.000000E-4	1.636299E-4	1.636299
5.883000	1.000000E-4	1.644731E-4	1.644731
5.793000	1.000000E-4	1.646838E-4	1.646838
5.788000	1.000000E-4	1.648945E-4	1.648945
5.795000	1.000000E-4	1.643466E-4	1.643466
5.706000	1.000000E-4	1.647259E-4	1.647259
5.801000	1.000000E-4	1.642200E-4	1.642200
5.670000	1.000000E-4	1.643044E-4	1.643044
5.799000	1.000000E-4	1.645573E-4	1.645573
5.622000	1.000000E-4	1.650631E-4	1.650630
5.771000	1.000000E-4	1.649366E-4	1.649366
5.606000	1.000000E-4	1.643887E-4	1.643887
TempA(K)	Current(A)	Voltage(V)	R(ohm)
5.219000	1.000000E-4	4.636950E-7	0.004637
5.374000	1.000000E-4	-1.348950E-6	-0.013489
5.199000	1.000000E-4	-1.264100E-7	-0.001264
5.361000	1.000000E-4	5.480400E-7	0.005480
5.199000	1.000000E-4	-2.950100E-7	-0.002950
5.306000	1.000000E-4	8.426000E-8	0.000843
5.206000	1.000000E-4	3.794000E-7	0.003794
5.213000	1.000000E-4	4.215100E-7	0.004215
5.225000	1.000000E-4	-4.213000E-8	-0.000421
5.133000	1.000000E-4	6.745150E-7	0.006745
5.193000	1.000000E-4	4.210000E-8	0.000421
TempA(K)	Current(A)	Voltage(V)	R(ohm)
4.671000	1.000000E-4	1.643887E-4	1.643887
4.589000	1.000000E-4	1.650210E-4	1.650210
4.701000	1.000000E-4	1.654847E-4	1.654847
4.565000	1.000000E-4	1.648524E-4	1.648524
4.719000	1.000000E-4	1.648524E-4	1.648524
4.540000	1.000000E-4	1.648524E-4	1.648524
4.720000	1.000000E-4	1.653161E-4	1.653161
4.544000	1.000000E-4	1.653583E-4	1.653582
4.683000	1.000000E-4	1.650632E-4	1.650632
4.565000	1.000000E-4	1.639253E-4	1.639253
4.601000	1.000000E-4	1.647680E-4	1.647680
4.602000	1.000000E-4	1.649368E-4	1.649367
4.533000	1.000000E-4	1.642623E-4	1.642623
4.651000	1.000000E-4	1.647681E-4	1.647681
4.529000	1.000000E-4	1.653581E-4	1.653581
4.693000	1.000000E-4	1.654425E-4	1.654424
4.509000	1.000000E-4	1.648101E-4	1.648101
4.703000	1.000000E-4	1.647681E-4	1.647681
4.516000	1.000000E-4	1.648945E-4	1.648945
4.668000	1.000000E-4	1.638830E-4	1.638830
4.540000	1.000000E-4	1.643044E-4	1.643044
4.589000	1.000000E-4	1.648102E-4	1.648102
4.580000	1.000000E-4	1.646837E-4	1.646837
4.592000	1.000000E-4	1.646416E-4	1.646416
4.635000	1.000000E-4	1.650210E-4	1.650210
4.524000	1.000000E-4	1.646416E-4	1.646416
4.683000	1.000000E-4	1.652317E-4	1.652316
4.502000	1.000000E-4	1.649366E-4	1.649366
4.703000	1.000000E-4	1.649366E-4	1.649366
4.514000	1.000000E-4	1.647681E-4	1.647681
4.674000	1.000000E-4	1.644730E-4	1.644729
4.539000	1.000000E-4	1.643045E-4	1.643045
4.602000	1.000000E-4	1.651896E-4	1.651896
4.581000	1.000000E-4	1.648102E-4	1.648102
4.606000	1.000000E-4	1.648523E-4	1.648523
4.639000	1.000000E-4	1.647682E-4	1.647682
4.540000	1.000000E-4	1.651474E-4	1.651474
4.694000	1.000000E-4	1.641357E-4	1.641357
4.519000	1.000000E-4	1.650632E-4	1.650632
4.713000	1.000000E-4	1.648102E-4	1.648102
4.528000	1.000000E-4	1.643887E-4	1.643887
4.698000	1.000000E-4	1.646837E-4	1.646837
4.558000	1.000000E-4	1.648103E-4	1.648103
4.631000	1.000000E-4	1.659484E-4	1.659483
4.600000	1.000000E-4	1.645996E-4	1.645996
4.637000	1.000000E-4	1.650209E-4	1.650209
4.661000	1.000000E-4	1.651053E-4	1.651053
4.571000	1.000000E-4	1.651475E-4	1.651474
4.713000	1.000000E-4	1.644730E-4	1.644729
4.548000	1.000000E-4	1.653161E-4	1.653161
4.733000	1.000000E-4	1.646837E-4	1.646837
4.560000	1.000000E-4	1.655269E-4	1.655269
4.722000	1.000000E-4	1.641780E-4	1.641780
4.588000	1.000000E-4	1.647680E-4	1.647680
4.670000	1.000000E-4	1.652317E-4	1.652317
4.632000	1.000000E-4	1.647682E-4	1.647682
4.602000	1.000000E-4	1.640936E-4	1.640935
4.693000	1.000000E-4	1.648524E-4	1.648524
4.612000	1.000000E-4	1.650632E-4	1.650632
4.736000	1.000000E-4	1.658218E-4	1.658218
4.588000	1.000000E-4	1.648945E-4	1.648945
4.760000	1.000000E-4	1.653160E-4	1.653160
4.602000	1.000000E-4	1.650631E-4	1.650631
4.751000	1.000000E-4	1.647258E-4	1.647258
4.630000	1.000000E-4	1.645152E-4	1.645152
4.712000	1.000000E-4	1.656533E-4	1.656532
4.674000	1.000000E-4	1.647258E-4	1.647258
4.719000	1.000000E-4	1.652737E-4	1.652737
4.724000	1.000000E-4	1.643888E-4	1.643888
4.663000	1.000000E-4	1.649368E-4	1.649367
4.765000	1.000000E-4	1.650632E-4	1.650632
4.640000	1.000000E-4	1.641780E-4	1.641780
4.791000	1.000000E-4	1.651476E-4	1.651476
4.654000	1.000000E-4	1.643044E-4	1.643044
4.785000	1.000000E-4	1.649366E-4	1.649366
4.684000	1.000000E-4	1.644731E-4	1.644731
4.749000	1.000000E-4	1.646416E-4	1.646416
4.718000	1.000000E-4	1.645151E-4	1.645151
4.708000	1.000000E-4	1.650632E-4	1.650632
4.758000	1.000000E-4	1.652738E-4	1.652738
4.717000	1.000000E-4	1.649365E-4	1.649365
4.800000	1.000000E-4	1.646417E-4	1.646417
4.700000	1.000000E-4	1.638828E-4	1.638828
4.829000	1.000000E-4	1.650209E-4	1.650209
4.710000	1.000000E-4	1.646839E-4	1.646839
4.827000	1.000000E-4	1.652738E-4	1.652738
4.730000	1.000000E-4	1.640936E-4	1.640935
4.794000	1.000000E-4	1.642200E-4	1.642200
4.759000	1.000000E-4	1.649365E-4	1.649365
4.803000	1.000000E-4	1.658638E-4	1.658638
4.799000	1.000000E-4	1.650631E-4	1.650631
4.763000	1.000000E-4	1.654003E-4	1.654003
4.843000	1.000000E-4	1.648524E-4	1.648524
4.746000	1.000000E-4	1.646416E-4	1.646416
4.873000	1.000000E-4	1.650209E-4	1.650209
4.756000	1.000000E-4	1.653161E-4	1.653161
4.874000	1.000000E-4	1.648101E-4	1.648101
4.777000	1.000000E-4	1.654845E-4	1.654845
4.842000	1.000000E-4	1.644308E-4	1.644308
4.805000	1.000000E-4	1.645152E-4	1.645151
4.802000	1.000000E-4	1.645994E-4	1.645994
4.846000	1.000000E-4	1.638407E-4	1.638407
4.813000	1.000000E-4	1.648944E-4	1.648944
4.890000	1.000000E-4	1.641779E-4	1.641779
4.796000	1.000000E-4	1.654004E-4	1.654004
4.931000	1.000000E-4	1.648944E-4	1.648944
4.806000	1.000000E-4	1.645994E-4	1.645994
4.934000	1.000000E-4	1.647680E-4	1.647680
4.826000	1.000000E-4	1.643464E-4	1.643464
4.894000	1.000000E-4	1.647680E-4	1.647680
4.854000	1.000000E-4	1.647680E-4	1.647680
4.907000	1.000000E-4	1.646415E-4	1.646415
4.894000	1.000000E-4	1.647257E-4	1.647257
4.864000	1.000000E-4	1.637563E-4	1.637563
4.955000	1.000000E-4	1.642200E-4	1.642200
4.847000	1.000000E-4	1.649786E-4	1.649786
5.002000	1.000000E-4	1.648524E-4	1.648524
4.855000	1.000000E-4	1.644729E-4	1.644729
5.008000	1.000000E-4	1.643044E-4	1.643043
4.874000	1.000000E-4	1.653581E-4	1.653581
5.023000	1.000000E-4	1.649787E-4	1.649787
4.904000	1.000000E-4	1.642200E-4	1.642200
4.983000	1.000000E-4	1.640936E-4	1.640936
4.962000	1.000000E-4	1.654002E-4	1.654001
4.923000	1.000000E-4	1.641779E-4	1.641779
5.025000	1.000000E-4	1.644305E-4	1.644305
4.897000	1.000000E-4	1.645150E-4	1.645150
5.073000	1.000000E-4	1.646415E-4	1.646415
4.907000	1.000000E-4	1.645993E-4	1.645992
5.079000	1.000000E-4	1.645572E-4	1.645571
4.935000	1.000000E-4	1.649786E-4	1.649785
5.093000	1.000000E-4	1.646415E-4	1.646414
4.973000	1.000000E-4	1.644308E-4	1.644308
5.054000	1.000000E-4	1.649365E-4	1.649365
5.030000	1.000000E-4	1.642621E-4	1.642621
4.996000	1.000000E-4	1.652317E-4	1.652317
5.092000	1.000000E-4	1.650629E-4	1.650629
4.966000	1.000000E-4	1.651052E-4	1.651052
5.139000	1.000000E-4	1.641779E-4	1.641779
4.975000	1.000000E-4	1.650629E-4	1.650629
5.149000	1.000000E-4	1.641777E-4	1.641777
5.002000	1.000000E-4	1.646838E-4	1.646837
5.162000	1.000000E-4	1.643043E-4	1.643043
5.041000	1.000000E-4	1.645150E-4	1.645150
5.125000	1.000000E-4	1.645993E-4	1.645993
5.095000	1.000000E-4	1.643043E-4	1.643043
5.067000	1.000000E-4	1.644308E-4	1.644308
5.156000	1.000000E-4	1.648523E-4	1.648522
5.036000	1.000000E-4	1.646415E-4	1.646415
5.206000	1.000000E-4	1.645572E-4	1.645572
5.045000	1.000000E-4	1.648943E-4	1.648943
5.222000	1.000000E-4	1.652737E-4	1.652737
5.070000	1.000000E-4	1.648523E-4	1.648523
5.237000	1.000000E-4	1.645150E-4	1.645150
5.107000	1.000000E-4	1.652316E-4	1.652316
5.194000	1.000000E-4	1.641777E-4	1.641777
5.160000	1.000000E-4	1.648945E-4	1.648945
5.137000	1.000000E-4	1.648523E-4	1.648522
5.225000	1.000000E-4	1.643886E-4	1.643886
5.104000	1.000000E-4	1.647259E-4	1.647259
5.287000	1.000000E-4	1.649366E-4	1.649366
5.109000	1.000000E-4	1.645151E-4	1.645151
5.304000	1.000000E-4	1.643464E-4	1.643464
5.135000	1.000000E-4	1.641357E-4	1.641357
5.321000	1.000000E-4	1.645572E-4	1.645572
5.170000	1.000000E-4	1.645572E-4	1.645571
5.277000	1.000000E-4	1.645150E-4	1.645150
5.227000	1.000000E-4	1.643886E-4	1.643886
5.204000	1.000000E-4	1.653581E-4	1.653581
5.304000	1.000000E-4	1.649365E-4	1.649365
5.167000	1.000000E-4	1.643044E-4	1.643043
5.367000	1.000000E-4	1.642621E-4	1.642621
5.171000	1.000000E-4	1.648523E-4	1.648523
5.383000	1.000000E-4	1.639671E-4	1.639671
5.196000	1.000000E-4	1.646836E-4	1.646836
5.401000	1.000000E-4	1.646836E-4	1.646836
5.239000	1.000000E-4	1.640512E-4	1.640512
5.360000	1.000000E-4	1.650209E-4	1.650209
5.304000	1.000000E-4	1.645572E-4	1.645572
5.288000	1.000000E-4	1.643464E-4	1.643464
5.378000	1.000000E-4	1.648522E-4	1.648522
5.239000	1.000000E-4	1.651895E-4	1.651895
5.440000	1.000000E-4	1.653581E-4	1.653581
5.241000	1.000000E-4	1.646416E-4	1.646416
5.454000	1.000000E-4	1.642200E-4	1.642200
5.268000	1.000000E-4	1.639670E-4	1.639670
5.474000	1.000000E-4	1.640936E-4	1.640935
5.313000	1.000000E-4	1.654423E-4	1.654423
5.438000	1.000000E-4	1.648101E-4	1.648101
5.374000	1.000000E-4	1.646415E-4	1.646414
5.366000	1.000000E-4	1.643886E-4	1.643886
5.447000	1.000000E-4	1.647259E-4	1.647259
5.315000	1.000000E-4	1.643464E-4	1.643464
5.462000	1.000000E-4	1.641779E-4	1.641779
5.314000	1.000000E-4	1.645572E-4	1.645571
5.523000	1.000000E-4	1.646415E-4	1.646415
5.339000	1.000000E-4	1.651894E-4	1.651894
5.545000	1.000000E-4	1.641356E-4	1.641356
5.381000	1.000000E-4	1.640092E-4	1.640092
5.511000	1.000000E-4	1.643885E-4	1.643885
5.442000	1.000000E-4	1.638829E-4	1.638829
5.438000	1.000000E-4	1.645994E-4	1.645994
5.513000	1.000000E-4	1.640936E-4	1.640936
5.386000	1.000000E-4	1.640092E-4	1.640092
5.527000	1.000000E-4	1.645574E-4	1.645574
5.384000	1.000000E-4	1.642620E-4	1.642620
5.589000	1.000000E-4	1.647681E-4	1.647681
5.411000	1.000000E-4	1.639248E-4	1.639248
5.612000	1.000000E-4	1.643886E-4	1.643886
5.452000	1.000000E-4	1.643464E-4	1.643464
5.583000	1.000000E-4	1.642621E-4	1.642621
5.511000	1.000000E-4	1.643043E-4	1.643043
5.515000	1.000000E-4	1.648521E-4	1.648521
5.524000	1.000000E-4	1.651473E-4	1.651473
5.461000	1.000000E-4	1.642621E-4	1.642621
5.594000	1.000000E-4	1.640935E-4	1.640935
5.456000	1.000000E-4	1.647680E-4	1.647680
5.655000	1.000000E-4	1.644728E-4	1.644728
5.482000	1.000000E-4	1.642200E-4	1.642200
5.680000	1.000000E-4	1.643886E-4	1.643886
5.524000	1.000000E-4	1.645572E-4	1.645571
5.654000	1.000000E-4	1.642622E-4	1.642621
5.580000	1.000000E-4	1.645572E-4	1.645572
5.591000	1.000000E-4	1.649787E-4	1.649787
5.593000	1.000000E-4	1.645150E-4	1.645150
5.536000	1.000000E-4	1.640514E-4	1.640514
5.659000	1.000000E-4	1.652315E-4	1.652315
5.530000	1.000000E-4	1.642200E-4	1.642200
5.719000	1.000000E-4	1.644308E-4	1.644308
5.554000	1.000000E-4	1.656952E-4	1.656952
5.745000	1.000000E-4	1.641356E-4	1.641356
5.592000	1.000000E-4	1.642621E-4	1.642621
5.722000	1.000000E-4	1.647680E-4	1.647680
5.646000	1.000000E-4	1.642621E-4	1.642621
5.661000	1.000000E-4	1.636720E-4	1.636720
5.659000	1.000000E-4	1.643041E-4	1.643041
5.609000	1.000000E-4	1.641778E-4	1.641778
5.723000	1.000000E-4	1.655266E-4	1.655266
5.600000	1.000000E-4	1.641778E-4	1.641778
5.784000	1.000000E-4	1.649787E-4	1.649787
5.622000	1.000000E-4	1.645572E-4	1.645572
5.811000	1.000000E-4	1.645150E-4	1.645150
5.660000	1.000000E-4	1.648522E-4	1.648522
5.791000	1.000000E-4	1.649787E-4	1.649787
5.711000	1.000000E-4	1.640936E-4	1.640935
5.731000	1.000000E-4	1.645993E-4	1.645993
5.723000	1.000000E-4	1.637562E-4	1.637562
5.678000	1.000000E-4	1.649366E-4	1.649366
5.787000	1.000000E-4	1.647257E-4	1.647257
5.666000	1.000000E-4	1.641778E-4	1.641778
5.846000	1.000000E-4	1.641777E-4	1.641777
5.687000	1.000000E-4	1.636718E-4	1.636718
5.874000	1.000000E-4	1.643464E-4	1.643464
5.726000	1.000000E-4	1.639670E-4	1.639670
5.856000	1.000000E-4	1.639249E-4	1.639249
5.774000	1.000000E-4	1.644728E-4	1.644728
5.800000	1.000000E-4	1.640513E-4	1.640513
5.787000	1.000000E-4	1.641779E-4	1.641779
5.747000	1.000000E-4	1.641356E-4	1.641356
5.849000	1.000000E-4	1.645571E-4	1.645571
5.733000	1.000000E-4	1.645149E-4	1.645149
5.907000	1.000000E-4	1.645151E-4	1.645151
5.755000	1.000000E-4	1.643043E-4	1.643043
5.938000	1.000000E-4	1.638827E-4	1.638827
5.790000	1.000000E-4	1.639671E-4	1.639671
5.923000	1.000000E-4	1.637563E-4	1.637563
5.804000	1.000000E-4	1.642200E-4	1.642200
5.870000	1.000000E-4	1.644308E-4	1.644308
5.851000	1.000000E-4	1.642199E-4	1.642199
5.815000	1.000000E-4	1.644728E-4	1.644728
5.910000	1.000000E-4	1.645151E-4	1.645151
5.798000	1.000000E-4	1.645995E-4	1.645995
5.967000	1.000000E-4	1.643887E-4	1.643887
5.821000	1.000000E-4	1.638405E-4	1.638405
6.000000	1.000000E-4	1.650631E-4	1.650630
5.854000	1.000000E-4	1.643464E-4	1.643464
5.988000	1.000000E-4	1.644730E-4	1.644729
5.868000	1.000000E-4	1.643465E-4	1.643465
5.938000	1.000000E-4	1.637563E-4	1.637563
5.913000	1.000000E-4	1.640514E-4	1.640513
5.882000	1.000000E-4	1.647258E-4	1.647258
5.970000	1.000000E-4	1.640515E-4	1.640515
5.865000	1.000000E-4	1.640092E-4	1.640092
6.027000	1.000000E-4	1.644728E-4	1.644728
5.882000	1.000000E-4	1.636719E-4	1.636719
6.059000	1.000000E-4	1.635032E-4	1.635032
5.917000	1.000000E-4	1.643464E-4	1.643464
6.051000	1.000000E-4	1.638407E-4	1.638407
5.931000	1.000000E-4	1.640515E-4	1.640515
6.005000	1.000000E-4	1.639250E-4	1.639250
5.974000	1.000000E-4	1.638828E-4	1.638828
5.950000	1.000000E-4	1.638827E-4	1.638827
6.030000	1.000000E-4	1.639249E-4	1.639249
5.930000	1.000000E-4	1.635878E-4	1.635878
6.084000	1.000000E-4	1.637984E-4	1.637984
5.946000	1.000000E-4	1.642200E-4	1.642200
6.119000	1.000000E-4	1.645572E-4	1.645571
5.960000	1.000000E-4	1.638827E-4	1.638827
6.113000	1.000000E-4	1.638827E-4	1.638827
5.994000	1.000000E-4	1.645572E-4	1.645571
6.071000	1.000000E-4	1.640937E-4	1.640937
6.036000	1.000000E-4	1.638407E-4	1.638407
6.017000	1.000000E-4	1.639250E-4	1.639250
6.087000	1.000000E-4	1.637985E-4	1.637984
5.993000	1.000000E-4	1.643043E-4	1.643043
6.141000	1.000000E-4	1.643464E-4	1.643464
6.012000	1.000000E-4	1.637142E-4	1.637142
6.177000	1.000000E-4	1.642200E-4	1.642200
6.022000	1.000000E-4	1.638827E-4	1.638827
6.176000	1.000000E-4	1.642622E-4	1.642621
6.054000	1.000000E-4	1.640935E-4	1.640935
6.136000	1.000000E-4	1.640514E-4	1.640513
6.094000	1.000000E-4	1.650630E-4	1.650630
6.082000	1.000000E-4	1.637984E-4	1.637984
6.144000	1.000000E-4	1.640935E-4	1.640935
6.057000	1.000000E-4	1.630397E-4	1.630397
6.198000	1.000000E-4	1.643043E-4	1.643043
6.071000	1.000000E-4	1.637984E-4	1.637984
6.235000	1.000000E-4	1.632503E-4	1.632503
6.101000	1.000000E-4	1.645572E-4	1.645571
6.237000	1.000000E-4	1.640934E-4	1.640934
6.114000	1.000000E-4	1.635033E-4	1.635033
6.201000	1.000000E-4	1.638827E-4	1.638827
6.154000	1.000000E-4	1.644307E-4	1.644307
6.149000	1.000000E-4	1.639671E-4	1.639671
6.203000	1.000000E-4	1.639670E-4	1.639670
6.121000	1.000000E-4	1.644729E-4	1.644729
6.255000	1.000000E-4	1.639249E-4	1.639249
6.133000	1.000000E-4	1.637562E-4	1.637561
6.294000	1.000000E-4	1.645572E-4	1.645571
6.145000	1.000000E-4	1.640935E-4	1.640935
6.298000	1.000000E-4	1.637140E-4	1.637140
6.174000	1.000000E-4	1.632926E-4	1.632926
6.265000	1.000000E-4	1.636299E-4	1.636299
6.213000	1.000000E-4	1.645572E-4	1.645571
6.215000	1.000000E-4	1.643043E-4	1.643043
6.260000	1.000000E-4	1.640935E-4	1.640935
6.184000	1.000000E-4	1.631240E-4	1.631240
6.312000	1.000000E-4	1.639249E-4	1.639249
6.195000	1.000000E-4	1.643043E-4	1.643043
6.352000	1.000000E-4	1.642621E-4	1.642621
6.206000	1.000000E-4	1.638828E-4	1.638828
6.359000	1.000000E-4	1.637563E-4	1.637563
6.236000	1.000000E-4	1.637562E-4	1.637562
6.328000	1.000000E-4	1.640935E-4	1.640935
6.272000	1.000000E-4	1.643042E-4	1.643042
6.278000	1.000000E-4	1.631241E-4	1.631241
6.318000	1.000000E-4	1.635878E-4	1.635878
6.249000	1.000000E-4	1.639670E-4	1.639670
6.368000	1.000000E-4	1.640514E-4	1.640513
6.254000	1.000000E-4	1.639669E-4	1.639669
6.411000	1.000000E-4	1.633769E-4	1.633768
6.267000	1.000000E-4	1.634191E-4	1.634190
6.420000	1.000000E-4	1.637984E-4	1.637984
6.293000	1.000000E-4	1.635455E-4	1.635455
6.390000	1.000000E-4	1.636719E-4	1.636719
6.329000	1.000000E-4	1.645149E-4	1.645149
6.340000	1.000000E-4	1.634190E-4	1.634190
6.372000	1.000000E-4	1.640092E-4	1.640092
6.308000	1.000000E-4	1.637984E-4	1.637984
6.427000	1.000000E-4	1.635456E-4	1.635456
6.312000	1.000000E-4	1.640092E-4	1.640092
6.476000	1.000000E-4	1.642200E-4	1.642200
6.338000	1.000000E-4	1.639671E-4	1.639671
6.490000	1.000000E-4	1.638406E-4	1.638406
6.349000	1.000000E-4	1.636297E-4	1.636297
6.459000	1.000000E-4	1.636719E-4	1.636719
6.384000	1.000000E-4	1.631660E-4	1.631660
6.403000	1.000000E-4	1.638407E-4	1.638407
6.432000	1.000000E-4	1.633348E-4	1.633348
6.368000	1.000000E-4	1.642198E-4	1.642198
6.491000	1.000000E-4	1.640092E-4	1.640092
6.369000	1.000000E-4	1.629131E-4	1.629131
6.540000	1.000000E-4	1.634613E-4	1.634613
6.380000	1.000000E-4	1.635876E-4	1.635876
6.557000	1.000000E-4	1.641356E-4	1.641355
6.405000	1.000000E-4	1.636720E-4	1.636720
6.534000	1.000000E-4	1.633769E-4	1.633769
6.447000	1.000000E-4	1.634191E-4	1.634190
6.476000	1.000000E-4	1.637563E-4	1.637563
6.495000	1.000000E-4	1.632924E-4	1.632924
6.433000	1.000000E-4	1.631662E-4	1.631662
6.552000	1.000000E-4	1.632926E-4	1.632926
6.428000	1.000000E-4	1.642620E-4	1.642620
6.601000	1.000000E-4	1.633768E-4	1.633768
6.441000	1.000000E-4	1.640512E-4	1.640512
6.622000	1.000000E-4	1.640514E-4	1.640514
6.468000	1.000000E-4	1.645993E-4	1.645992
6.600000	1.000000E-4	1.638827E-4	1.638827
6.507000	1.000000E-4	1.634611E-4	1.634611
6.546000	1.000000E-4	1.641356E-4	1.641356
6.554000	1.000000E-4	1.635033E-4	1.635033
6.498000	1.000000E-4	1.634190E-4	1.634190
6.610000	1.000000E-4	1.634191E-4	1.634190
6.491000	1.000000E-4	1.634190E-4	1.634190
6.660000	1.000000E-4	1.640093E-4	1.640093
6.505000	1.000000E-4	1.634191E-4	1.634191
6.682000	1.000000E-4	1.637562E-4	1.637562
6.527000	1.000000E-4	1.636718E-4	1.636718
6.664000	1.000000E-4	1.629975E-4	1.629974
6.567000	1.000000E-4	1.637984E-4	1.637984
6.614000	1.000000E-4	1.638827E-4	1.638827
6.613000	1.000000E-4	1.632503E-4	1.632503
6.564000	1.000000E-4	1.633769E-4	1.633769
6.667000	1.000000E-4	1.635455E-4	1.635455
6.551000	1.000000E-4	1.632505E-4	1.632505
6.716000	1.000000E-4	1.636297E-4	1.636297
6.565000	1.000000E-4	1.636297E-4	1.636297
6.741000	1.000000E-4	1.635455E-4	1.635455
6.588000	1.000000E-4	1.633347E-4	1.633347
6.727000	1.000000E-4	1.639670E-4	1.639670
6.625000	1.000000E-4	1.639670E-4	1.639670
6.680000	1.000000E-4	1.636299E-4	1.636299
6.671000	1.000000E-4	1.635032E-4	1.635032
6.629000	1.000000E-4	1.632926E-4	1.632926
6.724000	1.000000E-4	1.635034E-4	1.635034
6.615000	1.000000E-4	1.633347E-4	1.633347
6.774000	1.000000E-4	1.633346E-4	1.633346
6.628000	1.000000E-4	1.637141E-4	1.637141
6.801000	1.000000E-4	1.632503E-4	1.632503
6.649000	1.000000E-4	1.632082E-4	1.632082
6.792000	1.000000E-4	1.637563E-4	1.637563
6.686000	1.000000E-4	1.629975E-4	1.629975
6.744000	1.000000E-4	1.637562E-4	1.637562
6.730000	1.000000E-4	1.630818E-4	1.630818
6.694000	1.000000E-4	1.633768E-4	1.633768
6.782000	1.000000E-4	1.630398E-4	1.630397
6.677000	1.000000E-4	1.635455E-4	1.635455
6.831000	1.000000E-4	1.642622E-4	1.642621
6.691000	1.000000E-4	1.632083E-4	1.632082
6.858000	1.000000E-4	1.635454E-4	1.635454
6.709000	1.000000E-4	1.630395E-4	1.630395
6.851000	1.000000E-4	1.632503E-4	1.632503
6.745000	1.000000E-4	1.636297E-4	1.636297
6.808000	1.000000E-4	1.634191E-4	1.634190
6.787000	1.000000E-4	1.636297E-4	1.636297
6.757000	1.000000E-4	1.624493E-4	1.624493
6.837000	1.000000E-4	1.635875E-4	1.635875
6.738000	1.000000E-4	1.633347E-4	1.633347
6.885000	1.000000E-4	1.639670E-4	1.639669
6.756000	1.000000E-4	1.635876E-4	1.635876
6.916000	1.000000E-4	1.637141E-4	1.637141
6.768000	1.000000E-4	1.629134E-4	1.629134
6.911000	1.000000E-4	1.635876E-4	1.635876
6.804000	1.000000E-4	1.635033E-4	1.635033
6.871000	1.000000E-4	1.632926E-4	1.632926
6.844000	1.000000E-4	1.633347E-4	1.633347
6.820000	1.000000E-4	1.643464E-4	1.643463
6.893000	1.000000E-4	1.631661E-4	1.631660
6.799000	1.000000E-4	1.631661E-4	1.631661
6.940000	1.000000E-4	1.633347E-4	1.633347
6.811000	1.000000E-4	1.636719E-4	1.636719
6.970000	1.000000E-4	1.632083E-4	1.632082
6.828000	1.000000E-4	1.639248E-4	1.639247
6.968000	1.000000E-4	1.627867E-4	1.627866
6.861000	1.000000E-4	1.644306E-4	1.644306
6.931000	1.000000E-4	1.630817E-4	1.630817
6.901000	1.000000E-4	1.638405E-4	1.638405
6.882000	1.000000E-4	1.635455E-4	1.635455
6.946000	1.000000E-4	1.631661E-4	1.631660
6.859000	1.000000E-4	1.631660E-4	1.631660
6.993000	1.000000E-4	1.630396E-4	1.630396
6.872000	1.000000E-4	1.636719E-4	1.636719
7.025000	1.000000E-4	1.634189E-4	1.634189
6.886000	1.000000E-4	1.640091E-4	1.640091
7.026000	1.000000E-4	1.632925E-4	1.632925
6.918000	1.000000E-4	1.626180E-4	1.626180
6.992000	1.000000E-4	1.634611E-4	1.634611
6.956000	1.000000E-4	1.635876E-4	1.635876
6.945000	1.000000E-4	1.628709E-4	1.628709
7.002000	1.000000E-4	1.629975E-4	1.629974
6.920000	1.000000E-4	1.631239E-4	1.631239
7.048000	1.000000E-4	1.638404E-4	1.638404
6.932000	1.000000E-4	1.630816E-4	1.630816
7.081000	1.000000E-4	1.627868E-4	1.627868
6.943000	1.000000E-4	1.624494E-4	1.624494
7.084000	1.000000E-4	1.635033E-4	1.635033
6.975000	1.000000E-4	1.634611E-4	1.634611
7.054000	1.000000E-4	1.634612E-4	1.634612
7.013000	1.000000E-4	1.636719E-4	1.636719
7.066000	1.000000E-4	1.630816E-4	1.630816
7.056000	1.000000E-4	1.626180E-4	1.626180
7.018000	1.000000E-4	1.630397E-4	1.630397
7.101000	1.000000E-4	1.632925E-4	1.632925
6.991000	1.000000E-4	1.627023E-4	1.627023
7.135000	1.000000E-4	1.629132E-4	1.629132
7.000000	1.000000E-4	1.623230E-4	1.623230
7.140000	1.000000E-4	1.632082E-4	1.632082
7.030000	1.000000E-4	1.632504E-4	1.632504
7.151000	1.000000E-4	1.629553E-4	1.629553
7.067000	1.000000E-4	1.628288E-4	1.628288
7.125000	1.000000E-4	1.629553E-4	1.629553
7.111000	1.000000E-4	1.630397E-4	1.630397
7.080000	1.000000E-4	1.633347E-4	1.633347
7.156000	1.000000E-4	1.638827E-4	1.638827
7.044000	1.000000E-4	1.627025E-4	1.627025
7.185000	1.000000E-4	1.629975E-4	1.629975
7.077000	1.000000E-4	1.636299E-4	1.636299
7.157000	1.000000E-4	1.629133E-4	1.629133
7.114000	1.000000E-4	1.622808E-4	1.622808
7.169000	1.000000E-4	1.634613E-4	1.634613
7.155000	1.000000E-4	1.629132E-4	1.629132
7.126000	1.000000E-4	1.622386E-4	1.622386
7.200000	1.000000E-4	1.625759E-4	1.625759
7.098000	1.000000E-4	1.625760E-4	1.625760
7.234000	1.000000E-4	1.635034E-4	1.635034
7.103000	1.000000E-4	1.632503E-4	1.632503
7.240000	1.000000E-4	1.635033E-4	1.635033
7.133000	1.000000E-4	1.631240E-4	1.631240
7.216000	1.000000E-4	1.624073E-4	1.624073
7.169000	1.000000E-4	1.631239E-4	1.631239
7.229000	1.000000E-4	1.628711E-4	1.628711
7.210000	1.000000E-4	1.625760E-4	1.625760
7.187000	1.000000E-4	1.630818E-4	1.630818
7.254000	1.000000E-4	1.630819E-4	1.630819
7.157000	1.000000E-4	1.632083E-4	1.632082
7.288000	1.000000E-4	1.627446E-4	1.627446
7.159000	1.000000E-4	1.630397E-4	1.630397
7.297000	1.000000E-4	1.623231E-4	1.623231
7.189000	1.000000E-4	1.624916E-4	1.624916
7.275000	1.000000E-4	1.628289E-4	1.628289
7.224000	1.000000E-4	1.632504E-4	1.632504
7.286000	1.000000E-4	1.641777E-4	1.641776
7.263000	1.000000E-4	1.635032E-4	1.635032
7.244000	1.000000E-4	1.635032E-4	1.635032
7.306000	1.000000E-4	1.627869E-4	1.627869
7.213000	1.000000E-4	1.631239E-4	1.631239
7.340000	1.000000E-4	1.630818E-4	1.630818
7.215000	1.000000E-4	1.622808E-4	1.622808
7.351000	1.000000E-4	1.630397E-4	1.630397
7.243000	1.000000E-4	1.626182E-4	1.626181
7.361000	1.000000E-4	1.626180E-4	1.626180
7.276000	1.000000E-4	1.627446E-4	1.627446
7.343000	1.000000E-4	1.628289E-4	1.628289
7.316000	1.000000E-4	1.623652E-4	1.623652
7.302000	1.000000E-4	1.627868E-4	1.627868
7.358000	1.000000E-4	1.632924E-4	1.632924
7.270000	1.000000E-4	1.633347E-4	1.633347
7.393000	1.000000E-4	1.632504E-4	1.632504
7.269000	1.000000E-4	1.621545E-4	1.621544
7.406000	1.000000E-4	1.629975E-4	1.629975
7.296000	1.000000E-4	1.635455E-4	1.635455
7.422000	1.000000E-4	1.623229E-4	1.623229
7.330000	1.000000E-4	1.624917E-4	1.624918
7.400000	1.000000E-4	1.626603E-4	1.626603
7.368000	1.000000E-4	1.627869E-4	1.627869
7.359000	1.000000E-4	1.629975E-4	1.629975
7.412000	1.000000E-4	1.629975E-4	1.629975
7.325000	1.000000E-4	1.622808E-4	1.622808
7.459000	1.000000E-4	1.625760E-4	1.625760
7.323000	1.000000E-4	1.629975E-4	1.629975
7.477000	1.000000E-4	1.632505E-4	1.632505
7.348000	1.000000E-4	1.629132E-4	1.629132
7.492000	1.000000E-4	1.627867E-4	1.627866
7.380000	1.000000E-4	1.616908E-4	1.616908
7.470000	1.000000E-4	1.623230E-4	1.623230
7.425000	1.000000E-4	1.630817E-4	1.630817
7.417000	1.000000E-4	1.624073E-4	1.624073
7.479000	1.000000E-4	1.626603E-4	1.626603
7.377000	1.000000E-4	1.624496E-4	1.624495
7.524000	1.000000E-4	1.627446E-4	1.627446
7.370000	1.000000E-4	1.632926E-4	1.632926
7.544000	1.000000E-4	1.629554E-4	1.629554
7.394000	1.000000E-4	1.621966E-4	1.621966
7.557000	1.000000E-4	1.622387E-4	1.622387
7.437000	1.000000E-4	1.624074E-4	1.624073
7.537000	1.000000E-4	1.631661E-4	1.631661
7.486000	1.000000E-4	1.620703E-4	1.620702
7.486000	1.000000E-4	1.631240E-4	1.631240
7.540000	1.000000E-4	1.625338E-4	1.625338
7.438000	1.000000E-4	1.619859E-4	1.619859
7.586000	1.000000E-4	1.635034E-4	1.635034
7.425000	1.000000E-4	1.619015E-4	1.619015
7.607000	1.000000E-4	1.615643E-4	1.615643
7.459000	1.000000E-4	1.620280E-4	1.620280
7.619000	1.000000E-4	1.628289E-4	1.628289
7.500000	1.000000E-4	1.628710E-4	1.628710
7.604000	1.000000E-4	1.628288E-4	1.628288
7.549000	1.000000E-4	1.620702E-4	1.620702
7.553000	1.000000E-4	1.621966E-4	1.621966
7.600000	1.000000E-4	1.626602E-4	1.626602
7.504000	1.000000E-4	1.623231E-4	1.623231
7.645000	1.000000E-4	1.630818E-4	1.630818
7.489000	1.000000E-4	1.624075E-4	1.624075
7.670000	1.000000E-4	1.629974E-4	1.629974
7.518000	1.000000E-4	1.624496E-4	1.624495
7.682000	1.000000E-4	1.630397E-4	1.630397
7.560000	1.000000E-4	1.628290E-4	1.628289
7.667000	1.000000E-4	1.619016E-4	1.619016
7.607000	1.000000E-4	1.619437E-4	1.619437
7.619000	1.000000E-4	1.624495E-4	1.624495
7.658000	1.000000E-4	1.622809E-4	1.622809
7.570000	1.000000E-4	1.626603E-4	1.626603
7.704000	1.000000E-4	1.624494E-4	1.624494
7.551000	1.000000E-4	1.628710E-4	1.628710
7.715000	1.000000E-4	1.621123E-4	1.621123
7.578000	1.000000E-4	1.618173E-4	1.618173
7.739000	1.000000E-4	1.632083E-4	1.632083
7.617000	1.000000E-4	1.627867E-4	1.627867
7.729000	1.000000E-4	1.617752E-4	1.617752
7.663000	1.000000E-4	1.628710E-4	1.628710
7.684000	1.000000E-4	1.620702E-4	1.620702
7.715000	1.000000E-4	1.628710E-4	1.628710
7.632000	1.000000E-4	1.620701E-4	1.620701
7.760000	1.000000E-4	1.625338E-4	1.625338
7.611000	1.000000E-4	1.624917E-4	1.624917
7.771000	1.000000E-4	1.619437E-4	1.619437
7.634000	1.000000E-4	1.622389E-4	1.622389
7.795000	1.000000E-4	1.620702E-4	1.620702
7.674000	1.000000E-4	1.619016E-4	1.619016
7.787000	1.000000E-4	1.616908E-4	1.616908
7.720000	1.000000E-4	1.615223E-4	1.615223
7.744000	1.000000E-4	1.625338E-4	1.625338
7.769000	1.000000E-4	1.624074E-4	1.624074
7.693000	1.000000E-4	1.623233E-4	1.623232
7.815000	1.000000E-4	1.625338E-4	1.625338
7.672000	1.000000E-4	1.619438E-4	1.619438
7.825000	1.000000E-4	1.624073E-4	1.624073
7.692000	1.000000E-4	1.624918E-4	1.624918
7.852000	1.000000E-4	1.619859E-4	1.619859
7.731000	1.000000E-4	1.620280E-4	1.620280
7.846000	1.000000E-4	1.619857E-4	1.619857
7.777000	1.000000E-4	1.624916E-4	1.624916
7.807000	1.000000E-4	1.621124E-4	1.621124
7.824000	1.000000E-4	1.625760E-4	1.625760
7.756000	1.000000E-4	1.619436E-4	1.619436
7.870000	1.000000E-4	1.624074E-4	1.624073
7.733000	1.000000E-4	1.624073E-4	1.624073
7.882000	1.000000E-4	1.625338E-4	1.625338
7.752000	1.000000E-4	1.622387E-4	1.622387
7.912000	1.000000E-4	1.619857E-4	1.619857
7.789000	1.000000E-4	1.625759E-4	1.625759
7.907000	1.000000E-4	1.620701E-4	1.620701
7.834000	1.000000E-4	1.621545E-4	1.621545
7.869000	1.000000E-4	1.628289E-4	1.628289
7.880000	1.000000E-4	1.619437E-4	1.619437
7.820000	1.000000E-4	1.624917E-4	1.624917
7.927000	1.000000E-4	1.623230E-4	1.623230
7.792000	1.000000E-4	1.619437E-4	1.619437
7.937000	1.000000E-4	1.622387E-4	1.622387
7.809000	1.000000E-4	1.619016E-4	1.619016
7.967000	1.000000E-4	1.628710E-4	1.628710
7.845000	1.000000E-4	1.622809E-4	1.622809
7.966000	1.000000E-4	1.621545E-4	1.621545
7.889000	1.000000E-4	1.621966E-4	1.621966
7.929000	1.000000E-4	1.624073E-4	1.624073
7.935000	1.000000E-4	1.619015E-4	1.619015
7.878000	1.000000E-4	1.615644E-4	1.615644
7.945000	1.000000E-4	1.622807E-4	1.622807
7.850000	1.000000E-4	1.624074E-4	1.624073
7.990000	1.000000E-4	1.619016E-4	1.619016
7.863000	1.000000E-4	1.618173E-4	1.618173
8.020000	1.000000E-4	1.613536E-4	1.613536
7.899000	1.000000E-4	1.619437E-4	1.619437
8.022000	1.000000E-4	1.620702E-4	1.620702
7.944000	1.000000E-4	1.621966E-4	1.621966
7.989000	1.000000E-4	1.620281E-4	1.620281
7.989000	1.000000E-4	1.621545E-4	1.621544
7.938000	1.000000E-4	1.619858E-4	1.619858
8.000000	1.000000E-4	1.619860E-4	1.619860
7.909000	1.000000E-4	1.619016E-4	1.619016
8.045000	1.000000E-4	1.622810E-4	1.622810
7.919000	1.000000E-4	1.613536E-4	1.613536
8.076000	1.000000E-4	1.621545E-4	1.621545
7.955000	1.000000E-4	1.619016E-4	1.619016
8.079000	1.000000E-4	1.626182E-4	1.626182
7.999000	1.000000E-4	1.622387E-4	1.622387
8.047000	1.000000E-4	1.620703E-4	1.620702
8.043000	1.000000E-4	1.622810E-4	1.622810
7.998000	1.000000E-4	1.611428E-4	1.611428
8.055000	1.000000E-4	1.617329E-4	1.617329
7.967000	1.000000E-4	1.618172E-4	1.618172
8.100000	1.000000E-4	1.620701E-4	1.620701
7.979000	1.000000E-4	1.620279E-4	1.620279
8.132000	1.000000E-4	1.612272E-4	1.612271
8.014000	1.000000E-4	1.627446E-4	1.627446
8.136000	1.000000E-4	1.617331E-4	1.617331
8.056000	1.000000E-4	1.625338E-4	1.625338
8.107000	1.000000E-4	1.617329E-4	1.617329
8.101000	1.000000E-4	1.619437E-4	1.619437
8.060000	1.000000E-4	1.624917E-4	1.624917
8.111000	1.000000E-4	1.616910E-4	1.616910
8.027000	1.000000E-4	1.611848E-4	1.611849
8.154000	1.000000E-4	1.616908E-4	1.616908
8.036000	1.000000E-4	1.618173E-4	1.618173
8.184000	1.000000E-4	1.620281E-4	1.620281
8.070000	1.000000E-4	1.611428E-4	1.611428
8.192000	1.000000E-4	1.619437E-4	1.619437
8.113000	1.000000E-4	1.614800E-4	1.614800
8.164000	1.000000E-4	1.614801E-4	1.614801
8.154000	1.000000E-4	1.620702E-4	1.620702
8.118000	1.000000E-4	1.620702E-4	1.620702
8.164000	1.000000E-4	1.620282E-4	1.620282
8.088000	1.000000E-4	1.618595E-4	1.618594
8.207000	1.000000E-4	1.618594E-4	1.618594
8.094000	1.000000E-4	1.619016E-4	1.619016
8.238000	1.000000E-4	1.614800E-4	1.614800
8.124000	1.000000E-4	1.616908E-4	1.616908
8.245000	1.000000E-4	1.621123E-4	1.621123
8.165000	1.000000E-4	1.618595E-4	1.618594
8.220000	1.000000E-4	1.615644E-4	1.615644
8.175000	1.000000E-4	1.618595E-4	1.618595
8.175000	1.000000E-4	1.620279E-4	1.620279
8.218000	1.000000E-4	1.623653E-4	1.623653
8.143000	1.000000E-4	1.616487E-4	1.616487
8.260000	1.000000E-4	1.619016E-4	1.619016
8.150000	1.000000E-4	1.607635E-4	1.607635
8.292000	1.000000E-4	1.623653E-4	1.623652
8.180000	1.000000E-4	1.615644E-4	1.615644
8.301000	1.000000E-4	1.616910E-4	1.616909
8.220000	1.000000E-4	1.613957E-4	1.613957
8.276000	1.000000E-4	1.616065E-4	1.616065
8.230000	1.000000E-4	1.620280E-4	1.620280
8.232000	1.000000E-4	1.620703E-4	1.620702
8.271000	1.000000E-4	1.617330E-4	1.617330
8.200000	1.000000E-4	1.614802E-4	1.614801
8.313000	1.000000E-4	1.613957E-4	1.613957
8.205000	1.000000E-4	1.617329E-4	1.617329
8.345000	1.000000E-4	1.617330E-4	1.617330
8.234000	1.000000E-4	1.608477E-4	1.608478
8.354000	1.000000E-4	1.613535E-4	1.613535
8.273000	1.000000E-4	1.615643E-4	1.615643
8.331000	1.000000E-4	1.621966E-4	1.621966
8.284000	1.000000E-4	1.619859E-4	1.619859
8.291000	1.000000E-4	1.611007E-4	1.611007
8.325000	1.000000E-4	1.612692E-4	1.612692
8.255000	1.000000E-4	1.611007E-4	1.611007
8.365000	1.000000E-4	1.615221E-4	1.615221
8.259000	1.000000E-4	1.619436E-4	1.619436
8.398000	1.000000E-4	1.615222E-4	1.615222
8.289000	1.000000E-4	1.611849E-4	1.611849
8.410000	1.000000E-4	1.610585E-4	1.610585
8.328000	1.000000E-4	1.610585E-4	1.610585
8.390000	1.000000E-4	1.616908E-4	1.616908
8.339000	1.000000E-4	1.618595E-4	1.618594
8.348000	1.000000E-4	1.618173E-4	1.618173
8.379000	1.000000E-4	1.614379E-4	1.614379
8.313000	1.000000E-4	1.610585E-4	1.610585
8.419000	1.000000E-4	1.616487E-4	1.616487
8.315000	1.000000E-4	1.619859E-4	1.619859
8.454000	1.000000E-4	1.607213E-4	1.607213
8.345000	1.000000E-4	1.606791E-4	1.606791
8.463000	1.000000E-4	1.617329E-4	1.617329
8.354000	1.000000E-4	1.616065E-4	1.616065
8.445000	1.000000E-4	1.612692E-4	1.612692
8.393000	1.000000E-4	1.617329E-4	1.617329
8.404000	1.000000E-4	1.604684E-4	1.604684
8.432000	1.000000E-4	1.618593E-4	1.618593
8.370000	1.000000E-4	1.618173E-4	1.618173
8.473000	1.000000E-4	1.618171E-4	1.618171
8.370000	1.000000E-4	1.617751E-4	1.617750
8.505000	1.000000E-4	1.614800E-4	1.614800
8.398000	1.000000E-4	1.609742E-4	1.609741
8.519000	1.000000E-4	1.618595E-4	1.618594
8.408000	1.000000E-4	1.607213E-4	1.607213
8.499000	1.000000E-4	1.608477E-4	1.608478
8.447000	1.000000E-4	1.612692E-4	1.612692
8.462000	1.000000E-4	1.611007E-4	1.611007
8.485000	1.000000E-4	1.616488E-4	1.616488
8.427000	1.000000E-4	1.610164E-4	1.610163
8.526000	1.000000E-4	1.614800E-4	1.614800
8.425000	1.000000E-4	1.616065E-4	1.616065
8.559000	1.000000E-4	1.613535E-4	1.613535
8.452000	1.000000E-4	1.619437E-4	1.619437
8.573000	1.000000E-4	1.616486E-4	1.616486
8.464000	1.000000E-4	1.608055E-4	1.608055
8.557000	1.000000E-4	1.614800E-4	1.614800
8.501000	1.000000E-4	1.620701E-4	1.620701
8.519000	1.000000E-4	1.604683E-4	1.604683
8.538000	1.000000E-4	1.614800E-4	1.614800
8.482000	1.000000E-4	1.613536E-4	1.613536
8.578000	1.000000E-4	1.614378E-4	1.614378
8.479000	1.000000E-4	1.613115E-4	1.613115
8.612000	1.000000E-4	1.621122E-4	1.621122
8.490000	1.000000E-4	1.596675E-4	1.596675
8.625000	1.000000E-4	1.604262E-4	1.604262
8.516000	1.000000E-4	1.610585E-4	1.610585
8.611000	1.000000E-4	1.615643E-4	1.615643
8.555000	1.000000E-4	1.624074E-4	1.624074
8.576000	1.000000E-4	1.609320E-4	1.609320
8.593000	1.000000E-4	1.612692E-4	1.612692
8.540000	1.000000E-4	1.608899E-4	1.608899
8.632000	1.000000E-4	1.606371E-4	1.606370
8.536000	1.000000E-4	1.610584E-4	1.610584
8.666000	1.000000E-4	1.616908E-4	1.616908
8.548000	1.000000E-4	1.612694E-4	1.612694
8.682000	1.000000E-4	1.618593E-4	1.618593
8.574000	1.000000E-4	1.616487E-4	1.616487
8.668000	1.000000E-4	1.615222E-4	1.615222
8.609000	1.000000E-4	1.613115E-4	1.613115
8.634000	1.000000E-4	1.608899E-4	1.608899
8.648000	1.000000E-4	1.611848E-4	1.611849
8.597000	1.000000E-4	1.607214E-4	1.607214
8.685000	1.000000E-4	1.616908E-4	1.616908
8.592000	1.000000E-4	1.610165E-4	1.610164
8.719000	1.000000E-4	1.613535E-4	1.613535
8.603000	1.000000E-4	1.608056E-4	1.608055
8.736000	1.000000E-4	1.610585E-4	1.610586
8.628000	1.000000E-4	1.611850E-4	1.611850
8.725000	1.000000E-4	1.611428E-4	1.611428
8.665000	1.000000E-4	1.617752E-4	1.617752
8.690000	1.000000E-4	1.618594E-4	1.618594
8.701000	1.000000E-4	1.608478E-4	1.608478
8.654000	1.000000E-4	1.611007E-4	1.611007
8.741000	1.000000E-4	1.610163E-4	1.610163
8.647000	1.000000E-4	1.616908E-4	1.616908
8.773000	1.000000E-4	1.610164E-4	1.610164
8.659000	1.000000E-4	1.608056E-4	1.608056
8.791000	1.000000E-4	1.611849E-4	1.611849
8.683000	1.000000E-4	1.608477E-4	1.608478
8.780000	1.000000E-4	1.612270E-4	1.612270
8.720000	1.000000E-4	1.611851E-4	1.611851
8.746000	1.000000E-4	1.607635E-4	1.607635
8.756000	1.000000E-4	1.611429E-4	1.611429
8.709000	1.000000E-4	1.601735E-4	1.601735
8.793000	1.000000E-4	1.610164E-4	1.610163
8.721000	1.000000E-4	1.609320E-4	1.609320
8.833000	1.000000E-4	1.613113E-4	1.613113
8.713000	1.000000E-4	1.605105E-4	1.605104
8.856000	1.000000E-4	1.610164E-4	1.610164
8.737000	1.000000E-4	1.606370E-4	1.606370
8.840000	1.000000E-4	1.610164E-4	1.610164
8.773000	1.000000E-4	1.608900E-4	1.608900
8.800000	1.000000E-4	1.610164E-4	1.610163
8.812000	1.000000E-4	1.611007E-4	1.611007
8.813000	1.000000E-4	1.605948E-4	1.605948
8.858000	1.000000E-4	1.610164E-4	1.610163
8.776000	1.000000E-4	1.602577E-4	1.602577
8.900000	1.000000E-4	1.608900E-4	1.608900
8.769000	1.000000E-4	1.608479E-4	1.608478
8.922000	1.000000E-4	1.610586E-4	1.610586
8.792000	1.000000E-4	1.613536E-4	1.613536
8.908000	1.000000E-4	1.606370E-4	1.606370
8.834000	1.000000E-4	1.616065E-4	1.616065
8.868000	1.000000E-4	1.607213E-4	1.607213
8.878000	1.000000E-4	1.608057E-4	1.608057
8.881000	1.000000E-4	1.602998E-4	1.602998
8.923000	1.000000E-4	1.608899E-4	1.608899
8.837000	1.000000E-4	1.607213E-4	1.607213
8.962000	1.000000E-4	1.608056E-4	1.608056
8.825000	1.000000E-4	1.607214E-4	1.607214
8.984000	1.000000E-4	1.611429E-4	1.611429
8.852000	1.000000E-4	1.610584E-4	1.610584
8.971000	1.000000E-4	1.607213E-4	1.607213
8.896000	1.000000E-4	1.609743E-4	1.609743
8.932000	1.000000E-4	1.602575E-4	1.602575
8.938000	1.000000E-4	1.606791E-4	1.606791
8.941000	1.000000E-4	1.607214E-4	1.607214
8.981000	1.000000E-4	1.610585E-4	1.610586
8.896000	1.000000E-4	1.603842E-4	1.603842
9.018000	1.000000E-4	1.608478E-4	1.608478
8.883000	1.000000E-4	1.606371E-4	1.606371
9.041000	1.000000E-4	1.605106E-4	1.605106
8.909000	1.000000E-4	1.605950E-4	1.605950
9.028000	1.000000E-4	1.610164E-4	1.610164
8.952000	1.000000E-4	1.609322E-4	1.609322
9.041000	1.000000E-4	1.608900E-4	1.608900
8.995000	1.000000E-4	1.610585E-4	1.610586
9.004000	1.000000E-4	1.610586E-4	1.610586
9.041000	1.000000E-4	1.618173E-4	1.618173
8.961000	1.000000E-4	1.607214E-4	1.607214
9.078000	1.000000E-4	1.608479E-4	1.608478
8.947000	1.000000E-4	1.598363E-4	1.598363
9.101000	1.000000E-4	1.605528E-4	1.605528
8.970000	1.000000E-4	1.593303E-4	1.593303
9.091000	1.000000E-4	1.605106E-4	1.605106
9.014000	1.000000E-4	1.609743E-4	1.609743
9.104000	1.000000E-4	1.607637E-4	1.607637
9.058000	1.000000E-4	1.608479E-4	1.608478
9.067000	1.000000E-4	1.602155E-4	1.602155
9.101000	1.000000E-4	1.611430E-4	1.611430
9.024000	1.000000E-4	1.605528E-4	1.605528
9.139000	1.000000E-4	1.602155E-4	1.602155
9.011000	1.000000E-4	1.604265E-4	1.604264
9.164000	1.000000E-4	1.606793E-4	1.606793
9.035000	1.000000E-4	1.607214E-4	1.607214
9.156000	1.000000E-4	1.607637E-4	1.607637
9.075000	1.000000E-4	1.608057E-4	1.608057
9.167000	1.000000E-4	1.597519E-4	1.597519
9.118000	1.000000E-4	1.602999E-4	1.602999
9.130000	1.000000E-4	1.603000E-4	1.603000
9.162000	1.000000E-4	1.609322E-4	1.609322
9.087000	1.000000E-4	1.605528E-4	1.605528
9.199000	1.000000E-4	1.599626E-4	1.599626
9.070000	1.000000E-4	1.600470E-4	1.600469
9.221000	1.000000E-4	1.601312E-4	1.601312
9.091000	1.000000E-4	1.605527E-4	1.605527
9.211000	1.000000E-4	1.605527E-4	1.605527
9.134000	1.000000E-4	1.614800E-4	1.614800
9.226000	1.000000E-4	1.601734E-4	1.601734
9.176000	1.000000E-4	1.606792E-4	1.606792
9.189000	1.000000E-4	1.603420E-4	1.603420
9.218000	1.000000E-4	1.600048E-4	1.600048
9.147000	1.000000E-4	1.596677E-4	1.596677
9.256000	1.000000E-4	1.605107E-4	1.605107
9.129000	1.000000E-4	1.602999E-4	1.602999
9.279000	1.000000E-4	1.602156E-4	1.602156
9.151000	1.000000E-4	1.607214E-4	1.607214
9.271000	1.000000E-4	1.604685E-4	1.604685
9.191000	1.000000E-4	1.602577E-4	1.602577
9.284000	1.000000E-4	1.597941E-4	1.597940
9.234000	1.000000E-4	1.602999E-4	1.602999
9.250000	1.000000E-4	1.602156E-4	1.602156
9.276000	1.000000E-4	1.604685E-4	1.604685
9.208000	1.000000E-4	1.597941E-4	1.597941
9.314000	1.000000E-4	1.602578E-4	1.602578
9.189000	1.000000E-4	1.606372E-4	1.606372
9.336000	1.000000E-4	1.602578E-4	1.602577
9.208000	1.000000E-4	1.608478E-4	1.608478
9.326000	1.000000E-4	1.598784E-4	1.598783
9.247000	1.000000E-4	1.598783E-4	1.598783
9.342000	1.000000E-4	1.598784E-4	1.598783
9.290000	1.000000E-4	1.602999E-4	1.602999
9.308000	1.000000E-4	1.605107E-4	1.605107
9.331000	1.000000E-4	1.601312E-4	1.601312
9.265000	1.000000E-4	1.594147E-4	1.594147
9.369000	1.000000E-4	1.597940E-4	1.597940
9.249000	1.000000E-4	1.602157E-4	1.602156
9.394000	1.000000E-4	1.601734E-4	1.601734
9.266000	1.000000E-4	1.599627E-4	1.599627
9.403000	1.000000E-4	1.596677E-4	1.596677
9.304000	1.000000E-4	1.604686E-4	1.604686
9.400000	1.000000E-4	1.600049E-4	1.600049
9.348000	1.000000E-4	1.600892E-4	1.600892
9.369000	1.000000E-4	1.600049E-4	1.600049
9.389000	1.000000E-4	1.602999E-4	1.602999
9.329000	1.000000E-4	1.594990E-4	1.594990
9.427000	1.000000E-4	1.601734E-4	1.601734
9.310000	1.000000E-4	1.600892E-4	1.600892
9.452000	1.000000E-4	1.606372E-4	1.606372
9.325000	1.000000E-4	1.594148E-4	1.594148
9.462000	1.000000E-4	1.606793E-4	1.606792
9.365000	1.000000E-4	1.600049E-4	1.600049
9.459000	1.000000E-4	1.604264E-4	1.604264
9.406000	1.000000E-4	1.605530E-4	1.605530
9.429000	1.000000E-4	1.601314E-4	1.601314
9.446000	1.000000E-4	1.609743E-4	1.609743
9.390000	1.000000E-4	1.602578E-4	1.602578
9.484000	1.000000E-4	1.601735E-4	1.601735
9.368000	1.000000E-4	1.602578E-4	1.602577
9.495000	1.000000E-4	1.603422E-4	1.603421
9.383000	1.000000E-4	1.595412E-4	1.595412
9.520000	1.000000E-4	1.596677E-4	1.596677
9.421000	1.000000E-4	1.606793E-4	1.606793
9.517000	1.000000E-4	1.604264E-4	1.604264
9.463000	1.000000E-4	1.595834E-4	1.595834
9.489000	1.000000E-4	1.598362E-4	1.598362
9.505000	1.000000E-4	1.602578E-4	1.602578
9.452000	1.000000E-4	1.599627E-4	1.599627
9.543000	1.000000E-4	1.597519E-4	1.597519
9.430000	1.000000E-4	1.592039E-4	1.592039
9.554000	1.000000E-4	1.598785E-4	1.598785
9.444000	1.000000E-4	1.601312E-4	1.601312
9.578000	1.000000E-4	1.597941E-4	1.597940
9.482000	1.000000E-4	1.589509E-4	1.589509
9.578000	1.000000E-4	1.600048E-4	1.600048
9.523000	1.000000E-4	1.601313E-4	1.601313
9.551000	1.000000E-4	1.588667E-4	1.588667
9.563000	1.000000E-4	1.598361E-4	1.598361
9.514000	1.000000E-4	1.600470E-4	1.600469
9.600000	1.000000E-4	1.600892E-4	1.600892
9.492000	1.000000E-4	1.598784E-4	1.598784
9.612000	1.000000E-4	1.602999E-4	1.602999
9.503000	1.000000E-4	1.597939E-4	1.597939
9.637000	1.000000E-4	1.598784E-4	1.598783
9.542000	1.000000E-4	1.592883E-4	1.592883
9.639000	1.000000E-4	1.595833E-4	1.595833
9.582000	1.000000E-4	1.594147E-4	1.594147
9.612000	1.000000E-4	1.593725E-4	1.593725
9.622000	1.000000E-4	1.593304E-4	1.593304
9.573000	1.000000E-4	1.591197E-4	1.591197
9.657000	1.000000E-4	1.591617E-4	1.591617
9.551000	1.000000E-4	1.600470E-4	1.600469
9.669000	1.000000E-4	1.597941E-4	1.597940
9.563000	1.000000E-4	1.596254E-4	1.596254
9.694000	1.000000E-4	1.594146E-4	1.594146
9.599000	1.000000E-4	1.592881E-4	1.592881
9.695000	1.000000E-4	1.592040E-4	1.592040
9.639000	1.000000E-4	1.597941E-4	1.597940
9.671000	1.000000E-4	1.600048E-4	1.600048
9.678000	1.000000E-4	1.588245E-4	1.588245
9.634000	1.000000E-4	1.589932E-4	1.589932
9.714000	1.000000E-4	1.597940E-4	1.597940
9.612000	1.000000E-4	1.587823E-4	1.587823
9.725000	1.000000E-4	1.603421E-4	1.603421
9.623000	1.000000E-4	1.593303E-4	1.593303
9.751000	1.000000E-4	1.591618E-4	1.591618
9.659000	1.000000E-4	1.595411E-4	1.595411
9.754000	1.000000E-4	1.597940E-4	1.597940
9.700000	1.000000E-4	1.595411E-4	1.595411
9.733000	1.000000E-4	1.588667E-4	1.588667
9.737000	1.000000E-4	1.594147E-4	1.594147
9.698000	1.000000E-4	1.597519E-4	1.597519
9.771000	1.000000E-4	1.594147E-4	1.594146
9.673000	1.000000E-4	1.589931E-4	1.589930
9.782000	1.000000E-4	1.598362E-4	1.598361
9.683000	1.000000E-4	1.591195E-4	1.591195
9.807000	1.000000E-4	1.601313E-4	1.601313
9.718000	1.000000E-4	1.593303E-4	1.593303
9.810000	1.000000E-4	1.594567E-4	1.594567
9.757000	1.000000E-4	1.594989E-4	1.594989
9.791000	1.000000E-4	1.593304E-4	1.593304
9.794000	1.000000E-4	1.597098E-4	1.597098
9.757000	1.000000E-4	1.588667E-4	1.588667
9.805000	1.000000E-4	1.592460E-4	1.592460
9.733000	1.000000E-4	1.586138E-4	1.586137
9.839000	1.000000E-4	1.594991E-4	1.594990
9.742000	1.000000E-4	1.591196E-4	1.591195
9.864000	1.000000E-4	1.596255E-4	1.596255
9.775000	1.000000E-4	1.593304E-4	1.593304
9.867000	1.000000E-4	1.595411E-4	1.595411
9.812000	1.000000E-4	1.594145E-4	1.594145
9.847000	1.000000E-4	1.595412E-4	1.595412
9.848000	1.000000E-4	1.594990E-4	1.594990
9.814000	1.000000E-4	1.594567E-4	1.594567
9.860000	1.000000E-4	1.591617E-4	1.591617
9.791000	1.000000E-4	1.593303E-4	1.593303
9.893000	1.000000E-4	1.592038E-4	1.592038
9.796000	1.000000E-4	1.593724E-4	1.593724
9.917000	1.000000E-4	1.593303E-4	1.593303
9.829000	1.000000E-4	1.592039E-4	1.592039
9.923000	1.000000E-4	1.588666E-4	1.588666
9.868000	1.000000E-4	1.591616E-4	1.591616
9.906000	1.000000E-4	1.589509E-4	1.589509
9.905000	1.000000E-4	1.590353E-4	1.590353
9.874000	1.000000E-4	1.584873E-4	1.584873
9.917000	1.000000E-4	1.599205E-4	1.599205
9.851000	1.000000E-4	1.584873E-4	1.584873
9.951000	1.000000E-4	1.581502E-4	1.581502
9.858000	1.000000E-4	1.589932E-4	1.589932
9.978000	1.000000E-4	1.606370E-4	1.606370
9.891000	1.000000E-4	1.598782E-4	1.598782
9.984000	1.000000E-4	1.586981E-4	1.586981
9.930000	1.000000E-4	1.598785E-4	1.598785
9.970000	1.000000E-4	1.586980E-4	1.586980
9.967000	1.000000E-4	1.589089E-4	1.589089
9.939000	1.000000E-4	1.585295E-4	1.585295
9.979000	1.000000E-4	1.585294E-4	1.585294
9.915000	1.000000E-4	1.589088E-4	1.589088
10.011000	1.000000E-4	1.592041E-4	1.592041
9.920000	1.000000E-4	1.587403E-4	1.587403
10.037000	1.000000E-4	1.594146E-4	1.594146
9.952000	1.000000E-4	1.590352E-4	1.590352
10.045000	1.000000E-4	1.586138E-4	1.586137
9.989000	1.000000E-4	1.592883E-4	1.592882
10.030000	1.000000E-4	1.588666E-4	1.588666
10.000000	1.000000E-4	1.589510E-4	1.589510
9.999000	1.000000E-4	1.588668E-4	1.588668
10.036000	1.000000E-4	1.592883E-4	1.592882
9.976000	1.000000E-4	1.591196E-4	1.591196
10.070000	1.000000E-4	1.594990E-4	1.594990
9.981000	1.000000E-4	1.587824E-4	1.587824
10.096000	1.000000E-4	1.583608E-4	1.583608
10.012000	1.000000E-4	1.585717E-4	1.585717
10.104000	1.000000E-4	1.592461E-4	1.592461
10.048000	1.000000E-4	1.595411E-4	1.595411
10.090000	1.000000E-4	1.593304E-4	1.593304
10.083000	1.000000E-4	1.592461E-4	1.592461
10.060000	1.000000E-4	1.586138E-4	1.586138
10.095000	1.000000E-4	1.585716E-4	1.585716
10.036000	1.000000E-4	1.583187E-4	1.583187
10.126000	1.000000E-4	1.590353E-4	1.590353
10.038000	1.000000E-4	1.589088E-4	1.589088
10.151000	1.000000E-4	1.592461E-4	1.592461
10.069000	1.000000E-4	1.583188E-4	1.583188
10.161000	1.000000E-4	1.590775E-4	1.590775
10.105000	1.000000E-4	1.580236E-4	1.580236
10.148000	1.000000E-4	1.584872E-4	1.584872
10.116000	1.000000E-4	1.591617E-4	1.591617
10.119000	1.000000E-4	1.588246E-4	1.588245
10.151000	1.000000E-4	1.581923E-4	1.581923
10.095000	1.000000E-4	1.585717E-4	1.585717
10.182000	1.000000E-4	1.589510E-4	1.589510
10.097000	1.000000E-4	1.592460E-4	1.592460
10.208000	1.000000E-4	1.594569E-4	1.594569
10.125000	1.000000E-4	1.584452E-4	1.584451
10.217000	1.000000E-4	1.584874E-4	1.584874
10.162000	1.000000E-4	1.585295E-4	1.585295
10.205000	1.000000E-4	1.581079E-4	1.581079
10.172000	1.000000E-4	1.582346E-4	1.582345
10.177000	1.000000E-4	1.585716E-4	1.585716
10.207000	1.000000E-4	1.590774E-4	1.590774
10.154000	1.000000E-4	1.583608E-4	1.583608
10.238000	1.000000E-4	1.577287E-4	1.577287
10.154000	1.000000E-4	1.578971E-4	1.578971
10.262000	1.000000E-4	1.585716E-4	1.585716
10.181000	1.000000E-4	1.585716E-4	1.585716
10.270000	1.000000E-4	1.581923E-4	1.581923
10.215000	1.000000E-4	1.581923E-4	1.581923
10.259000	1.000000E-4	1.584029E-4	1.584029
10.226000	1.000000E-4	1.581501E-4	1.581501
10.233000	1.000000E-4	1.590352E-4	1.590352
10.260000	1.000000E-4	1.584031E-4	1.584031
10.209000	1.000000E-4	1.583609E-4	1.583609
10.291000	1.000000E-4	1.579815E-4	1.579815
10.208000	1.000000E-4	1.576863E-4	1.576863
10.314000	1.000000E-4	1.579815E-4	1.579815
10.234000	1.000000E-4	1.579393E-4	1.579393
10.324000	1.000000E-4	1.583186E-4	1.583186
10.269000	1.000000E-4	1.588666E-4	1.588666
10.314000	1.000000E-4	1.576022E-4	1.576022
10.279000	1.000000E-4	1.584452E-4	1.584451
10.289000	1.000000E-4	1.578971E-4	1.578971
10.313000	1.000000E-4	1.587401E-4	1.587401
10.264000	1.000000E-4	1.584452E-4	1.584452
10.343000	1.000000E-4	1.584872E-4	1.584872
10.263000	1.000000E-4	1.586980E-4	1.586980
10.367000	1.000000E-4	1.589088E-4	1.589088
10.288000	1.000000E-4	1.579815E-4	1.579814
10.376000	1.000000E-4	1.587824E-4	1.587824
10.299000	1.000000E-4	1.586980E-4	1.586980
10.367000	1.000000E-4	1.588665E-4	1.588665
10.331000	1.000000E-4	1.586559E-4	1.586559
10.342000	1.000000E-4	1.574335E-4	1.574335
10.365000	1.000000E-4	1.581502E-4	1.581502
10.317000	1.000000E-4	1.584030E-4	1.584030
10.395000	1.000000E-4	1.589089E-4	1.589089
10.315000	1.000000E-4	1.581502E-4	1.581502
10.418000	1.000000E-4	1.576865E-4	1.576865
10.340000	1.000000E-4	1.589509E-4	1.589509
10.429000	1.000000E-4	1.577285E-4	1.577285
10.352000	1.000000E-4	1.580237E-4	1.580237
10.420000	1.000000E-4	1.577707E-4	1.577707
10.385000	1.000000E-4	1.582766E-4	1.582766
10.395000	1.000000E-4	1.578129E-4	1.578129
10.417000	1.000000E-4	1.588245E-4	1.588245
10.371000	1.000000E-4	1.582765E-4	1.582765
10.446000	1.000000E-4	1.576021E-4	1.576021
10.368000	1.000000E-4	1.581922E-4	1.581922
10.469000	1.000000E-4	1.580658E-4	1.580658
10.394000	1.000000E-4	1.575178E-4	1.575178
10.481000	1.000000E-4	1.579394E-4	1.579394
10.405000	1.000000E-4	1.575599E-4	1.575599
10.472000	1.000000E-4	1.579393E-4	1.579393
10.436000	1.000000E-4	1.578551E-4	1.578551
10.447000	1.000000E-4	1.579394E-4	1.579394
10.486000	1.000000E-4	1.588667E-4	1.588667
10.411000	1.000000E-4	1.568854E-4	1.568854
10.510000	1.000000E-4	1.584873E-4	1.584873
10.436000	1.000000E-4	1.583187E-4	1.583187
10.521000	1.000000E-4	1.578549E-4	1.578549
10.446000	1.000000E-4	1.575178E-4	1.575178
10.512000	1.000000E-4	1.576021E-4	1.576021
10.477000	1.000000E-4	1.577286E-4	1.577286
10.488000	1.000000E-4	1.584031E-4	1.584031
10.509000	1.000000E-4	1.575177E-4	1.575177
10.465000	1.000000E-4	1.575178E-4	1.575178
10.536000	1.000000E-4	1.576021E-4	1.576021
10.463000	1.000000E-4	1.574337E-4	1.574337
10.559000	1.000000E-4	1.580237E-4	1.580237
10.485000	1.000000E-4	1.580657E-4	1.580657
10.569000	1.000000E-4	1.582765E-4	1.582765
10.495000	1.000000E-4	1.577286E-4	1.577286
10.563000	1.000000E-4	1.576021E-4	1.576021
10.527000	1.000000E-4	1.585716E-4	1.585716
10.540000	1.000000E-4	1.575178E-4	1.575178
10.559000	1.000000E-4	1.580236E-4	1.580236
10.517000	1.000000E-4	1.572649E-4	1.572649
10.585000	1.000000E-4	1.586559E-4	1.586559
10.514000	1.000000E-4	1.573493E-4	1.573493
10.610000	1.000000E-4	1.574336E-4	1.574335
10.525000	1.000000E-4	1.577286E-4	1.577286
10.622000	1.000000E-4	1.575600E-4	1.575600
10.547000	1.000000E-4	1.580237E-4	1.580237
10.615000	1.000000E-4	1.579815E-4	1.579814
10.578000	1.000000E-4	1.576865E-4	1.576865
10.593000	1.000000E-4	1.578130E-4	1.578129
10.611000	1.000000E-4	1.580237E-4	1.580237
10.571000	1.000000E-4	1.576866E-4	1.576866
10.640000	1.000000E-4	1.577286E-4	1.577286
10.567000	1.000000E-4	1.570542E-4	1.570542
10.664000	1.000000E-4	1.583187E-4	1.583187
10.577000	1.000000E-4	1.572650E-4	1.572650
10.675000	1.000000E-4	1.574759E-4	1.574759
10.598000	1.000000E-4	1.578130E-4	1.578130
10.670000	1.000000E-4	1.579815E-4	1.579815
10.630000	1.000000E-4	1.575178E-4	1.575178
10.649000	1.000000E-4	1.568435E-4	1.568434
10.665000	1.000000E-4	1.573070E-4	1.573070
10.626000	1.000000E-4	1.574758E-4	1.574758
10.694000	1.000000E-4	1.573914E-4	1.573914
10.636000	1.000000E-4	1.573493E-4	1.573493
10.718000	1.000000E-4	1.573072E-4	1.573072
10.632000	1.000000E-4	1.584029E-4	1.584029
10.731000	1.000000E-4	1.576022E-4	1.576022
10.654000	1.000000E-4	1.574335E-4	1.574335
10.727000	1.000000E-4	1.567592E-4	1.567592
10.686000	1.000000E-4	1.576021E-4	1.576021
10.706000	1.000000E-4	1.571385E-4	1.571385
10.719000	1.000000E-4	1.569277E-4	1.569277
10.680000	1.000000E-4	1.571806E-4	1.571806
10.744000	1.000000E-4	1.575178E-4	1.575178
10.689000	1.000000E-4	1.571386E-4	1.571386
10.767000	1.000000E-4	1.582767E-4	1.582766
10.682000	1.000000E-4	1.578973E-4	1.578972
10.779000	1.000000E-4	1.576865E-4	1.576865
10.703000	1.000000E-4	1.576865E-4	1.576865
10.776000	1.000000E-4	1.570542E-4	1.570542
10.734000	1.000000E-4	1.574757E-4	1.574757
10.756000	1.000000E-4	1.570965E-4	1.570964
10.767000	1.000000E-4	1.575179E-4	1.575179
10.730000	1.000000E-4	1.568435E-4	1.568435
10.793000	1.000000E-4	1.579393E-4	1.579392
10.741000	1.000000E-4	1.570120E-4	1.570120
10.817000	1.000000E-4	1.569698E-4	1.569698
10.735000	1.000000E-4	1.571385E-4	1.571385
10.831000	1.000000E-4	1.573914E-4	1.573913
10.754000	1.000000E-4	1.570542E-4	1.570542
10.828000	1.000000E-4	1.564219E-4	1.564219
10.786000	1.000000E-4	1.576021E-4	1.576021
10.810000	1.000000E-4	1.566749E-4	1.566748
10.820000	1.000000E-4	1.581079E-4	1.581079
10.821000	1.000000E-4	1.570542E-4	1.570542
10.847000	1.000000E-4	1.584029E-4	1.584029
10.798000	1.000000E-4	1.564220E-4	1.564220
10.871000	1.000000E-4	1.575178E-4	1.575178
10.792000	1.000000E-4	1.569279E-4	1.569279
10.887000	1.000000E-4	1.567170E-4	1.567170
10.811000	1.000000E-4	1.572229E-4	1.572229
10.885000	1.000000E-4	1.566328E-4	1.566328
10.842000	1.000000E-4	1.567592E-4	1.567592
10.867000	1.000000E-4	1.576866E-4	1.576866
10.874000	1.000000E-4	1.565061E-4	1.565061
10.877000	1.000000E-4	1.560426E-4	1.560426
10.899000	1.000000E-4	1.569698E-4	1.569698
10.852000	1.000000E-4	1.564641E-4	1.564641
10.923000	1.000000E-4	1.574337E-4	1.574337
10.846000	1.000000E-4	1.563798E-4	1.563798
10.938000	1.000000E-4	1.578551E-4	1.578550
10.864000	1.000000E-4	1.572229E-4	1.572229
10.938000	1.000000E-4	1.565062E-4	1.565063
10.896000	1.000000E-4	1.571807E-4	1.571807
10.923000	1.000000E-4	1.570964E-4	1.570964
10.930000	1.000000E-4	1.568013E-4	1.568013
10.936000	1.000000E-4	1.568014E-4	1.568014
10.958000	1.000000E-4	1.569699E-4	1.569699
10.915000	1.000000E-4	1.570121E-4	1.570121
10.983000	1.000000E-4	1.571807E-4	1.571807
10.908000	1.000000E-4	1.568436E-4	1.568436
10.999000	1.000000E-4	1.566328E-4	1.566328
10.927000	1.000000E-4	1.570542E-4	1.570542
10.999000	1.000000E-4	1.571806E-4	1.571806
10.956000	1.000000E-4	1.565906E-4	1.565906
11.010000	1.000000E-4	1.566326E-4	1.566326
10.988000	1.000000E-4	1.567592E-4	1.567592
10.995000	1.000000E-4	1.566749E-4	1.566748
11.015000	1.000000E-4	1.572650E-4	1.572650
10.974000	1.000000E-4	1.572227E-4	1.572227
11.039000	1.000000E-4	1.573072E-4	1.573071
10.967000	1.000000E-4	1.568436E-4	1.568436
11.055000	1.000000E-4	1.568855E-4	1.568855
10.985000	1.000000E-4	1.570121E-4	1.570121
11.057000	1.000000E-4	1.563376E-4	1.563376
11.013000	1.000000E-4	1.566749E-4	1.566748
11.068000	1.000000E-4	1.568435E-4	1.568435
11.044000	1.000000E-4	1.568858E-4	1.568858
11.053000	1.000000E-4	1.562954E-4	1.562954
11.072000	1.000000E-4	1.573071E-4	1.573071
11.031000	1.000000E-4	1.566749E-4	1.566749
11.095000	1.000000E-4	1.563376E-4	1.563376
11.023000	1.000000E-4	1.560426E-4	1.560426
11.111000	1.000000E-4	1.571385E-4	1.571385
11.041000	1.000000E-4	1.567592E-4	1.567592
11.122000	1.000000E-4	1.561269E-4	1.561269
11.071000	1.000000E-4	1.560426E-4	1.560426
11.124000	1.000000E-4	1.561268E-4	1.561268
11.102000	1.000000E-4	1.554103E-4	1.554103
11.110000	1.000000E-4	1.568855E-4	1.568855
11.128000	1.000000E-4	1.558740E-4	1.558739
11.091000	1.000000E-4	1.561269E-4	1.561269
11.152000	1.000000E-4	1.567591E-4	1.567591
11.082000	1.000000E-4	1.571385E-4	1.571385
11.167000	1.000000E-4	1.563376E-4	1.563376
11.099000	1.000000E-4	1.565905E-4	1.565905
11.178000	1.000000E-4	1.561691E-4	1.561691
11.128000	1.000000E-4	1.568014E-4	1.568014
11.181000	1.000000E-4	1.551995E-4	1.551995
11.159000	1.000000E-4	1.565905E-4	1.565905
11.167000	1.000000E-4	1.559583E-4	1.559583
11.185000	1.000000E-4	1.567169E-4	1.567169
11.148000	1.000000E-4	1.562533E-4	1.562533
11.208000	1.000000E-4	1.561691E-4	1.561691
11.140000	1.000000E-4	1.563376E-4	1.563376
11.219000	1.000000E-4	1.560427E-4	1.560427
11.157000	1.000000E-4	1.556211E-4	1.556211
11.235000	1.000000E-4	1.559161E-4	1.559161
11.185000	1.000000E-4	1.568434E-4	1.568434
11.237000	1.000000E-4	1.561269E-4	1.561269
11.215000	1.000000E-4	1.565062E-4	1.565062
11.224000	1.000000E-4	1.559161E-4	1.559161
11.241000	1.000000E-4	1.558317E-4	1.558317
11.206000	1.000000E-4	1.562113E-4	1.562113
11.265000	1.000000E-4	1.560848E-4	1.560847
11.197000	1.000000E-4	1.560004E-4	1.560004
11.275000	1.000000E-4	1.556632E-4	1.556632
11.214000	1.000000E-4	1.566749E-4	1.566748
11.289000	1.000000E-4	1.562533E-4	1.562533
11.241000	1.000000E-4	1.553682E-4	1.553682
11.290000	1.000000E-4	1.561689E-4	1.561689
11.269000	1.000000E-4	1.565483E-4	1.565483
11.277000	1.000000E-4	1.569277E-4	1.569277
11.295000	1.000000E-4	1.559161E-4	1.559161
11.260000	1.000000E-4	1.562533E-4	1.562533
11.306000	1.000000E-4	1.556632E-4	1.556632
11.252000	1.000000E-4	1.567590E-4	1.567590
11.329000	1.000000E-4	1.554945E-4	1.554945
11.268000	1.000000E-4	1.557054E-4	1.557054
11.345000	1.000000E-4	1.563378E-4	1.563377
11.300000	1.000000E-4	1.558740E-4	1.558739
11.349000	1.000000E-4	1.554946E-4	1.554946
11.328000	1.000000E-4	1.560424E-4	1.560424
11.339000	1.000000E-4	1.561271E-4	1.561271
11.355000	1.000000E-4	1.557474E-4	1.557474
11.324000	1.000000E-4	1.558318E-4	1.558318
11.368000	1.000000E-4	1.556632E-4	1.556632
11.316000	1.000000E-4	1.560848E-4	1.560848
11.391000	1.000000E-4	1.553261E-4	1.553260
11.332000	1.000000E-4	1.561690E-4	1.561690
11.406000	1.000000E-4	1.557896E-4	1.557896
11.363000	1.000000E-4	1.560004E-4	1.560004
11.410000	1.000000E-4	1.560848E-4	1.560848
11.391000	1.000000E-4	1.553681E-4	1.553681
11.400000	1.000000E-4	1.553260E-4	1.553260
11.404000	1.000000E-4	1.562112E-4	1.562112
11.386000	1.000000E-4	1.555789E-4	1.555789
11.429000	1.000000E-4	1.556210E-4	1.556210
11.378000	1.000000E-4	1.558318E-4	1.558318
11.452000	1.000000E-4	1.561268E-4	1.561268
11.396000	1.000000E-4	1.554946E-4	1.554946
11.468000	1.000000E-4	1.555367E-4	1.555367
11.426000	1.000000E-4	1.556632E-4	1.556632
11.473000	1.000000E-4	1.557897E-4	1.557897
11.456000	1.000000E-4	1.567169E-4	1.567169
11.466000	1.000000E-4	1.550307E-4	1.550307
11.469000	1.000000E-4	1.566327E-4	1.566327
11.453000	1.000000E-4	1.549044E-4	1.549044
11.496000	1.000000E-4	1.554524E-4	1.554524
11.448000	1.000000E-4	1.557476E-4	1.557476
11.519000	1.000000E-4	1.558319E-4	1.558319
11.464000	1.000000E-4	1.556210E-4	1.556210
11.535000	1.000000E-4	1.557475E-4	1.557475
11.493000	1.000000E-4	1.549888E-4	1.549888
11.540000	1.000000E-4	1.547779E-4	1.547778
11.524000	1.000000E-4	1.558318E-4	1.558318
11.533000	1.000000E-4	1.551996E-4	1.551996
11.538000	1.000000E-4	1.560846E-4	1.560846
11.522000	1.000000E-4	1.552839E-4	1.552839
11.564000	1.000000E-4	1.550731E-4	1.550731
11.516000	1.000000E-4	1.546937E-4	1.546937
11.587000	1.000000E-4	1.549887E-4	1.549887
11.532000	1.000000E-4	1.554102E-4	1.554102
11.603000	1.000000E-4	1.551995E-4	1.551995
11.562000	1.000000E-4	1.557896E-4	1.557896
11.610000	1.000000E-4	1.551151E-4	1.551151
11.576000	1.000000E-4	1.558740E-4	1.558740
11.600000	1.000000E-4	1.555789E-4	1.555789
11.606000	1.000000E-4	1.552839E-4	1.552839
11.589000	1.000000E-4	1.557896E-4	1.557896
11.639000	1.000000E-4	1.550731E-4	1.550731
11.585000	1.000000E-4	1.549467E-4	1.549467
11.668000	1.000000E-4	1.552416E-4	1.552416
11.603000	1.000000E-4	1.548202E-4	1.548202
11.688000	1.000000E-4	1.554945E-4	1.554945
11.640000	1.000000E-4	1.545673E-4	1.545673
11.697000	1.000000E-4	1.550731E-4	1.550731
11.659000	1.000000E-4	1.554525E-4	1.554525
11.689000	1.000000E-4	1.546094E-4	1.546094
11.696000	1.000000E-4	1.554945E-4	1.554945
11.676000	1.000000E-4	1.546938E-4	1.546938
11.728000	1.000000E-4	1.551995E-4	1.551995
11.672000	1.000000E-4	1.549046E-4	1.549046
11.755000	1.000000E-4	1.548200E-4	1.548200
11.692000	1.000000E-4	1.550308E-4	1.550308
11.774000	1.000000E-4	1.549045E-4	1.549045
11.709000	1.000000E-4	1.550730E-4	1.550730
11.783000	1.000000E-4	1.546937E-4	1.546937
11.744000	1.000000E-4	1.554103E-4	1.554102
11.774000	1.000000E-4	1.546095E-4	1.546095
11.780000	1.000000E-4	1.552839E-4	1.552839
11.760000	1.000000E-4	1.552416E-4	1.552416
11.809000	1.000000E-4	1.549466E-4	1.549466
11.754000	1.000000E-4	1.545252E-4	1.545252
11.835000	1.000000E-4	1.540612E-4	1.540612
11.772000	1.000000E-4	1.552416E-4	1.552416
11.852000	1.000000E-4	1.548202E-4	1.548202
11.788000	1.000000E-4	1.549045E-4	1.549045
11.860000	1.000000E-4	1.543988E-4	1.543988
11.821000	1.000000E-4	1.550731E-4	1.550731
11.850000	1.000000E-4	1.549045E-4	1.549045
11.854000	1.000000E-4	1.550731E-4	1.550731
11.837000	1.000000E-4	1.546094E-4	1.546094
11.883000	1.000000E-4	1.539349E-4	1.539349
11.829000	1.000000E-4	1.542722E-4	1.542722
11.907000	1.000000E-4	1.547781E-4	1.547781
11.847000	1.000000E-4	1.547781E-4	1.547781
11.926000	1.000000E-4	1.547358E-4	1.547358
11.863000	1.000000E-4	1.548624E-4	1.548624
11.933000	1.000000E-4	1.541878E-4	1.541878
11.896000	1.000000E-4	1.551154E-4	1.551154
11.925000	1.000000E-4	1.538085E-4	1.538085
11.928000	1.000000E-4	1.547359E-4	1.547359
11.910000	1.000000E-4	1.546095E-4	1.546095
11.956000	1.000000E-4	1.541879E-4	1.541879
11.905000	1.000000E-4	1.543986E-4	1.543986
11.981000	1.000000E-4	1.540614E-4	1.540614
11.921000	1.000000E-4	1.549467E-4	1.549467
11.998000	1.000000E-4	1.542723E-4	1.542723
11.934000	1.000000E-4	1.538087E-4	1.538087
12.004000	1.000000E-4	1.552417E-4	1.552417
11.965000	1.000000E-4	1.544830E-4	1.544830
11.994000	1.000000E-4	1.541879E-4	1.541879
11.999000	1.000000E-4	1.542723E-4	1.542723
11.982000	1.000000E-4	1.540615E-4	1.540615
12.026000	1.000000E-4	1.545251E-4	1.545251
11.976000	1.000000E-4	1.534292E-4	1.534292
12.050000	1.000000E-4	1.541459E-4	1.541458
11.989000	1.000000E-4	1.546094E-4	1.546094
12.065000	1.000000E-4	1.542301E-4	1.542301
12.002000	1.000000E-4	1.541037E-4	1.541036
12.070000	1.000000E-4	1.542722E-4	1.542722
12.032000	1.000000E-4	1.541879E-4	1.541879
12.061000	1.000000E-4	1.541458E-4	1.541458
12.061000	1.000000E-4	1.548202E-4	1.548202
12.046000	1.000000E-4	1.539350E-4	1.539350
12.087000	1.000000E-4	1.543987E-4	1.543987
12.038000	1.000000E-4	1.535979E-4	1.535979
12.110000	1.000000E-4	1.539349E-4	1.539349
12.051000	1.000000E-4	1.540616E-4	1.540616
12.125000	1.000000E-4	1.541037E-4	1.541036
12.065000	1.000000E-4	1.535137E-4	1.535137
12.132000	1.000000E-4	1.538087E-4	1.538087
12.093000	1.000000E-4	1.541878E-4	1.541878
12.123000	1.000000E-4	1.535979E-4	1.535979
12.123000	1.000000E-4	1.548202E-4	1.548202
12.109000	1.000000E-4	1.543565E-4	1.543565
12.150000	1.000000E-4	1.535136E-4	1.535136
12.101000	1.000000E-4	1.536400E-4	1.536400
12.172000	1.000000E-4	1.539350E-4	1.539350
12.113000	1.000000E-4	1.538929E-4	1.538928
12.186000	1.000000E-4	1.536821E-4	1.536820
12.128000	1.000000E-4	1.543565E-4	1.543565
12.194000	1.000000E-4	1.541038E-4	1.541038
12.157000	1.000000E-4	1.543988E-4	1.543988
12.187000	1.000000E-4	1.539772E-4	1.539772
12.187000	1.000000E-4	1.544409E-4	1.544409
12.173000	1.000000E-4	1.530920E-4	1.530920
12.212000	1.000000E-4	1.535136E-4	1.535136
12.187000	1.000000E-4	1.534293E-4	1.534293
12.234000	1.000000E-4	1.537244E-4	1.537244
12.178000	1.000000E-4	1.536399E-4	1.536399
12.248000	1.000000E-4	1.533026E-4	1.533026
12.190000	1.000000E-4	1.533028E-4	1.533028
12.256000	1.000000E-4	1.536822E-4	1.536822
12.216000	1.000000E-4	1.529234E-4	1.529234
12.246000	1.000000E-4	1.536821E-4	1.536821
12.245000	1.000000E-4	1.533028E-4	1.533027
12.231000	1.000000E-4	1.538508E-4	1.538508
12.268000	1.000000E-4	1.534715E-4	1.534715
12.243000	1.000000E-4	1.535979E-4	1.535979
12.290000	1.000000E-4	1.539352E-4	1.539351
12.235000	1.000000E-4	1.540195E-4	1.540195
12.304000	1.000000E-4	1.534714E-4	1.534714
12.245000	1.000000E-4	1.534715E-4	1.534715
12.310000	1.000000E-4	1.535979E-4	1.535979
12.271000	1.000000E-4	1.541038E-4	1.541038
12.302000	1.000000E-4	1.535979E-4	1.535979
12.300000	1.000000E-4	1.538931E-4	1.538930
12.291000	1.000000E-4	1.529656E-4	1.529656
12.326000	1.000000E-4	1.538929E-4	1.538929
12.301000	1.000000E-4	1.535557E-4	1.535557
12.345000	1.000000E-4	1.541880E-4	1.541880
12.291000	1.000000E-4	1.532185E-4	1.532185
12.358000	1.000000E-4	1.534292E-4	1.534292
12.300000	1.000000E-4	1.532607E-4	1.532607
12.365000	1.000000E-4	1.532185E-4	1.532185
12.326000	1.000000E-4	1.538930E-4	1.538930
12.358000	1.000000E-4	1.535979E-4	1.535979
12.354000	1.000000E-4	1.535136E-4	1.535136
12.345000	1.000000E-4	1.530076E-4	1.530076
12.378000	1.000000E-4	1.541459E-4	1.541459
12.358000	1.000000E-4	1.538086E-4	1.538086
12.400000	1.000000E-4	1.532185E-4	1.532185
12.351000	1.000000E-4	1.535558E-4	1.535557
12.415000	1.000000E-4	1.537244E-4	1.537244
12.358000	1.000000E-4	1.535556E-4	1.535556
12.422000	1.000000E-4	1.531342E-4	1.531342
12.383000	1.000000E-4	1.538509E-4	1.538509
12.417000	1.000000E-4	1.532606E-4	1.532606
12.412000	1.000000E-4	1.531765E-4	1.531764
12.429000	1.000000E-4	1.536823E-4	1.536823
12.436000	1.000000E-4	1.531763E-4	1.531763
12.417000	1.000000E-4	1.531765E-4	1.531764
12.458000	1.000000E-4	1.536822E-4	1.536822
12.409000	1.000000E-4	1.525440E-4	1.525440
12.472000	1.000000E-4	1.530920E-4	1.530920
12.416000	1.000000E-4	1.526285E-4	1.526285
12.481000	1.000000E-4	1.532608E-4	1.532608
12.440000	1.000000E-4	1.532607E-4	1.532607
12.473000	1.000000E-4	1.531343E-4	1.531343
12.468000	1.000000E-4	1.529656E-4	1.529656
12.487000	1.000000E-4	1.527970E-4	1.527970
12.493000	1.000000E-4	1.534716E-4	1.534716
12.474000	1.000000E-4	1.534294E-4	1.534294
12.513000	1.000000E-4	1.529657E-4	1.529657
12.464000	1.000000E-4	1.531343E-4	1.531343
12.526000	1.000000E-4	1.535135E-4	1.535135
12.472000	1.000000E-4	1.522068E-4	1.522068
12.536000	1.000000E-4	1.529236E-4	1.529236
12.497000	1.000000E-4	1.533871E-4	1.533871
12.532000	1.000000E-4	1.532185E-4	1.532185
12.524000	1.000000E-4	1.530078E-4	1.530078
12.543000	1.000000E-4	1.525442E-4	1.525441
12.548000	1.000000E-4	1.528392E-4	1.528392
12.531000	1.000000E-4	1.527128E-4	1.527128
12.569000	1.000000E-4	1.525020E-4	1.525019
12.522000	1.000000E-4	1.527549E-4	1.527549
12.583000	1.000000E-4	1.531764E-4	1.531764
12.531000	1.000000E-4	1.529236E-4	1.529236
12.594000	1.000000E-4	1.532186E-4	1.532186
12.553000	1.000000E-4	1.525865E-4	1.525864
12.604000	1.000000E-4	1.525020E-4	1.525019
12.582000	1.000000E-4	1.532186E-4	1.532186
12.601000	1.000000E-4	1.521646E-4	1.521646
12.604000	1.000000E-4	1.527128E-4	1.527128
12.590000	1.000000E-4	1.525442E-4	1.525442
12.625000	1.000000E-4	1.527549E-4	1.527549
12.579000	1.000000E-4	1.526706E-4	1.526706
12.637000	1.000000E-4	1.525442E-4	1.525441
12.584000	1.000000E-4	1.527128E-4	1.527127
12.647000	1.000000E-4	1.527127E-4	1.527127
12.607000	1.000000E-4	1.523755E-4	1.523755
12.658000	1.000000E-4	1.530078E-4	1.530078
12.634000	1.000000E-4	1.524598E-4	1.524598
12.656000	1.000000E-4	1.525442E-4	1.525441
12.658000	1.000000E-4	1.530500E-4	1.530500
12.644000	1.000000E-4	1.529657E-4	1.529657
12.676000	1.000000E-4	1.525021E-4	1.525021
12.635000	1.000000E-4	1.529235E-4	1.529235
12.692000	1.000000E-4	1.527550E-4	1.527549
12.640000	1.000000E-4	1.525863E-4	1.525863
12.703000	1.000000E-4	1.528814E-4	1.528814
12.662000	1.000000E-4	1.526706E-4	1.526706
12.714000	1.000000E-4	1.518276E-4	1.518276
12.690000	1.000000E-4	1.525019E-4	1.525019
12.713000	1.000000E-4	1.523756E-4	1.523756
12.713000	1.000000E-4	1.522490E-4	1.522490
12.701000	1.000000E-4	1.522491E-4	1.522491
12.733000	1.000000E-4	1.525441E-4	1.525441
12.693000	1.000000E-4	1.524598E-4	1.524598
12.748000	1.000000E-4	1.525442E-4	1.525441
12.697000	1.000000E-4	1.519962E-4	1.519962
12.759000	1.000000E-4	1.523334E-4	1.523333
12.718000	1.000000E-4	1.521227E-4	1.521227
12.768000	1.000000E-4	1.521227E-4	1.521227
12.744000	1.000000E-4	1.521226E-4	1.521225
12.767000	1.000000E-4	1.529657E-4	1.529657
12.766000	1.000000E-4	1.517854E-4	1.517854
12.756000	1.000000E-4	1.520805E-4	1.520805
12.784000	1.000000E-4	1.523334E-4	1.523334
12.745000	1.000000E-4	1.524598E-4	1.524598
12.798000	1.000000E-4	1.518698E-4	1.518698
12.748000	1.000000E-4	1.525442E-4	1.525442
12.810000	1.000000E-4	1.525862E-4	1.525862
12.768000	1.000000E-4	1.527128E-4	1.527127
12.819000	1.000000E-4	1.517012E-4	1.517012
12.794000	1.000000E-4	1.525020E-4	1.525020
12.819000	1.000000E-4	1.522490E-4	1.522490
12.819000	1.000000E-4	1.518275E-4	1.518275
12.811000	1.000000E-4	1.516169E-4	1.516169
12.838000	1.000000E-4	1.525442E-4	1.525441
12.802000	1.000000E-4	1.518696E-4	1.518696
12.852000	1.000000E-4	1.527550E-4	1.527549
12.804000	1.000000E-4	1.517011E-4	1.517011
12.863000	1.000000E-4	1.519119E-4	1.519119
12.821000	1.000000E-4	1.522069E-4	1.522069
12.871000	1.000000E-4	1.518697E-4	1.518697
12.846000	1.000000E-4	1.520383E-4	1.520383
12.871000	1.000000E-4	1.522913E-4	1.522913
12.869000	1.000000E-4	1.516590E-4	1.516590
12.863000	1.000000E-4	1.516591E-4	1.516591
12.889000	1.000000E-4	1.528391E-4	1.528391
12.853000	1.000000E-4	1.528394E-4	1.528393
12.902000	1.000000E-4	1.513639E-4	1.513639
12.855000	1.000000E-4	1.516589E-4	1.516589
12.916000	1.000000E-4	1.525021E-4	1.525021
12.873000	1.000000E-4	1.519541E-4	1.519541
12.928000	1.000000E-4	1.522069E-4	1.522069
12.899000	1.000000E-4	1.522069E-4	1.522069
12.929000	1.000000E-4	1.523334E-4	1.523333
12.925000	1.000000E-4	1.516590E-4	1.516590
12.921000	1.000000E-4	1.516589E-4	1.516589
12.947000	1.000000E-4	1.518275E-4	1.518275
12.911000	1.000000E-4	1.520383E-4	1.520383
12.963000	1.000000E-4	1.517011E-4	1.517011
12.911000	1.000000E-4	1.514482E-4	1.514482
12.976000	1.000000E-4	1.518697E-4	1.518697
12.930000	1.000000E-4	1.515747E-4	1.515747
12.987000	1.000000E-4	1.517433E-4	1.517432
12.957000	1.000000E-4	1.527551E-4	1.527551
12.990000	1.000000E-4	1.516590E-4	1.516590
12.984000	1.000000E-4	1.521226E-4	1.521226
12.981000	1.000000E-4	1.527127E-4	1.527127
13.005000	1.000000E-4	1.513217E-4	1.513216
12.971000	1.000000E-4	1.511110E-4	1.511110
13.022000	1.000000E-4	1.514482E-4	1.514482
12.972000	1.000000E-4	1.517855E-4	1.517855
13.034000	1.000000E-4	1.517012E-4	1.517012
12.989000	1.000000E-4	1.514904E-4	1.514903
13.045000	1.000000E-4	1.512796E-4	1.512796
13.014000	1.000000E-4	1.518276E-4	1.518276
13.047000	1.000000E-4	1.517012E-4	1.517011
13.040000	1.000000E-4	1.521226E-4	1.521226
13.040000	1.000000E-4	1.520384E-4	1.520384
13.062000	1.000000E-4	1.509002E-4	1.509002
13.030000	1.000000E-4	1.516590E-4	1.516590
13.078000	1.000000E-4	1.513218E-4	1.513218
13.027000	1.000000E-4	1.522072E-4	1.522072
13.089000	1.000000E-4	1.517433E-4	1.517432
13.044000	1.000000E-4	1.511111E-4	1.511111
13.101000	1.000000E-4	1.517433E-4	1.517433
13.070000	1.000000E-4	1.514904E-4	1.514903
13.103000	1.000000E-4	1.509425E-4	1.509424
13.095000	1.000000E-4	1.514904E-4	1.514904
13.095000	1.000000E-4	1.511532E-4	1.511532
13.116000	1.000000E-4	1.513219E-4	1.513219
13.083000	1.000000E-4	1.512376E-4	1.512375
13.124000	1.000000E-4	1.514904E-4	1.514904
13.081000	1.000000E-4	1.517854E-4	1.517854
13.141000	1.000000E-4	1.518700E-4	1.518699
13.095000	1.000000E-4	1.514482E-4	1.514482
13.151000	1.000000E-4	1.513218E-4	1.513218
13.120000	1.000000E-4	1.514904E-4	1.514904
13.153000	1.000000E-4	1.519120E-4	1.519120
13.143000	1.000000E-4	1.511953E-4	1.511953
13.146000	1.000000E-4	1.507317E-4	1.507317
13.164000	1.000000E-4	1.516169E-4	1.516169
13.136000	1.000000E-4	1.508159E-4	1.508159
13.174000	1.000000E-4	1.508159E-4	1.508159
13.132000	1.000000E-4	1.511953E-4	1.511953
13.190000	1.000000E-4	1.515748E-4	1.515748
13.144000	1.000000E-4	1.516590E-4	1.516590
13.200000	1.000000E-4	1.515325E-4	1.515325
13.169000	1.000000E-4	1.510267E-4	1.510267
13.204000	1.000000E-4	1.510267E-4	1.510267
13.194000	1.000000E-4	1.513219E-4	1.513219
13.199000	1.000000E-4	1.515748E-4	1.515748
13.217000	1.000000E-4	1.505210E-4	1.505210
13.190000	1.000000E-4	1.508581E-4	1.508581
13.227000	1.000000E-4	1.506474E-4	1.506474
13.186000	1.000000E-4	1.501836E-4	1.501837
13.243000	1.000000E-4	1.511109E-4	1.511109
13.196000	1.000000E-4	1.515748E-4	1.515748
13.254000	1.000000E-4	1.507739E-4	1.507739
13.221000	1.000000E-4	1.508581E-4	1.508581
13.254000	1.000000E-4	1.513219E-4	1.513219
13.244000	1.000000E-4	1.506895E-4	1.506895
13.249000	1.000000E-4	1.503524E-4	1.503524
13.264000	1.000000E-4	1.507739E-4	1.507739
13.238000	1.000000E-4	1.506474E-4	1.506474
13.273000	1.000000E-4	1.515747E-4	1.515747
13.233000	1.000000E-4	1.505631E-4	1.505631
13.289000	1.000000E-4	1.508582E-4	1.508582
13.246000	1.000000E-4	1.508582E-4	1.508582
13.303000	1.000000E-4	1.506052E-4	1.506052
13.270000	1.000000E-4	1.512376E-4	1.512375
13.305000	1.000000E-4	1.515325E-4	1.515325
13.295000	1.000000E-4	1.505631E-4	1.505630
13.301000	1.000000E-4	1.509846E-4	1.509846
13.317000	1.000000E-4	1.517854E-4	1.517854
13.294000	1.000000E-4	1.509846E-4	1.509846
13.334000	1.000000E-4	1.507317E-4	1.507317
13.290000	1.000000E-4	1.511111E-4	1.511111
13.345000	1.000000E-4	1.513218E-4	1.513218
13.303000	1.000000E-4	1.512376E-4	1.512375
13.357000	1.000000E-4	1.508581E-4	1.508581
13.326000	1.000000E-4	1.511532E-4	1.511532
13.362000	1.000000E-4	1.506474E-4	1.506474
13.351000	1.000000E-4	1.508581E-4	1.508581
13.358000	1.000000E-4	1.513219E-4	1.513219
13.371000	1.000000E-4	1.516590E-4	1.516590
13.350000	1.000000E-4	1.511953E-4	1.511953
13.382000	1.000000E-4	1.511111E-4	1.511111
13.345000	1.000000E-4	1.514062E-4	1.514061
13.398000	1.000000E-4	1.508159E-4	1.508159
13.355000	1.000000E-4	1.500994E-4	1.500994
13.411000	1.000000E-4	1.507316E-4	1.507316
13.379000	1.000000E-4	1.513218E-4	1.513218
13.417000	1.000000E-4	1.510689E-4	1.510689
13.405000	1.000000E-4	1.498463E-4	1.498463
13.414000	1.000000E-4	1.506895E-4	1.506895
13.426000	1.000000E-4	1.501836E-4	1.501837
13.406000	1.000000E-4	1.509846E-4	1.509846
13.436000	1.000000E-4	1.508159E-4	1.508159
13.402000	1.000000E-4	1.513218E-4	1.513218
13.453000	1.000000E-4	1.507739E-4	1.507739
13.412000	1.000000E-4	1.510269E-4	1.510269
13.467000	1.000000E-4	1.503945E-4	1.503945
13.435000	1.000000E-4	1.500151E-4	1.500151
13.471000	1.000000E-4	1.503525E-4	1.503525
13.458000	1.000000E-4	1.502258E-4	1.502258
13.469000	1.000000E-4	1.503944E-4	1.503944
13.478000	1.000000E-4	1.503523E-4	1.503522
13.461000	1.000000E-4	1.507739E-4	1.507739
13.490000	1.000000E-4	1.504787E-4	1.504787
13.457000	1.000000E-4	1.501415E-4	1.501414
13.507000	1.000000E-4	1.499309E-4	1.499309
13.466000	1.000000E-4	1.510267E-4	1.510267
13.521000	1.000000E-4	1.506052E-4	1.506052
13.489000	1.000000E-4	1.511954E-4	1.511953
13.526000	1.000000E-4	1.510267E-4	1.510267
13.513000	1.000000E-4	1.506051E-4	1.506051
13.525000	1.000000E-4	1.504366E-4	1.504366
13.534000	1.000000E-4	1.503523E-4	1.503523
13.519000	1.000000E-4	1.503523E-4	1.503523
13.553000	1.000000E-4	1.507739E-4	1.507739
13.514000	1.000000E-4	1.506896E-4	1.506896
13.566000	1.000000E-4	1.497201E-4	1.497201
13.524000	1.000000E-4	1.499307E-4	1.499307
13.573000	1.000000E-4	1.498043E-4	1.498043
13.546000	1.000000E-4	1.503102E-4	1.503102
13.571000	1.000000E-4	1.504366E-4	1.504366
13.569000	1.000000E-4	1.509847E-4	1.509847
13.583000	1.000000E-4	1.508581E-4	1.508581
13.588000	1.000000E-4	1.509003E-4	1.509003
13.574000	1.000000E-4	1.506053E-4	1.506053
13.606000	1.000000E-4	1.503102E-4	1.503102
13.571000	1.000000E-4	1.496357E-4	1.496357
13.620000	1.000000E-4	1.501416E-4	1.501416
13.579000	1.000000E-4	1.500574E-4	1.500574
13.628000	1.000000E-4	1.497622E-4	1.497621
13.598000	1.000000E-4	1.506473E-4	1.506473
13.626000	1.000000E-4	1.501838E-4	1.501837
13.623000	1.000000E-4	1.503102E-4	1.503102
13.622000	1.000000E-4	1.507317E-4	1.507317
13.645000	1.000000E-4	1.497200E-4	1.497200
13.631000	1.000000E-4	1.497622E-4	1.497621
13.662000	1.000000E-4	1.499308E-4	1.499308
13.628000	1.000000E-4	1.496357E-4	1.496358
13.676000	1.000000E-4	1.494249E-4	1.494249
13.635000	1.000000E-4	1.505631E-4	1.505631
13.684000	1.000000E-4	1.496778E-4	1.496778
13.655000	1.000000E-4	1.501415E-4	1.501415
13.683000	1.000000E-4	1.498045E-4	1.498045
13.678000	1.000000E-4	1.500573E-4	1.500573
13.677000	1.000000E-4	1.500573E-4	1.500573
13.699000	1.000000E-4	1.504366E-4	1.504366
13.686000	1.000000E-4	1.501415E-4	1.501415
13.715000	1.000000E-4	1.498887E-4	1.498887
13.682000	1.000000E-4	1.499731E-4	1.499731
13.729000	1.000000E-4	1.495936E-4	1.495936
13.688000	1.000000E-4	1.495514E-4	1.495513
13.735000	1.000000E-4	1.493829E-4	1.493829
13.706000	1.000000E-4	1.498465E-4	1.498465
13.735000	1.000000E-4	1.498044E-4	1.498043
13.729000	1.000000E-4	1.501837E-4	1.501837
13.730000	1.000000E-4	1.506053E-4	1.506053
13.750000	1.000000E-4	1.493407E-4	1.493407
13.740000	1.000000E-4	1.491721E-4	1.491721
13.767000	1.000000E-4	1.494673E-4	1.494672
13.736000	1.000000E-4	1.494250E-4	1.494250
13.781000	1.000000E-4	1.493406E-4	1.493406
13.742000	1.000000E-4	1.491299E-4	1.491299
13.790000	1.000000E-4	1.497201E-4	1.497201
13.760000	1.000000E-4	1.498887E-4	1.498887
13.789000	1.000000E-4	1.499308E-4	1.499308
13.783000	1.000000E-4	1.505210E-4	1.505210
13.802000	1.000000E-4	1.495516E-4	1.495515
13.804000	1.000000E-4	1.490878E-4	1.490878
13.796000	1.000000E-4	1.492985E-4	1.492985
13.821000	1.000000E-4	1.497201E-4	1.497201
13.791000	1.000000E-4	1.499308E-4	1.499308
13.834000	1.000000E-4	1.497623E-4	1.497623
13.794000	1.000000E-4	1.488350E-4	1.488349
13.842000	1.000000E-4	1.495937E-4	1.495937
13.811000	1.000000E-4	1.497201E-4	1.497201
13.842000	1.000000E-4	1.487084E-4	1.487084
13.835000	1.000000E-4	1.496778E-4	1.496778
13.855000	1.000000E-4	1.495095E-4	1.495095
13.855000	1.000000E-4	1.499730E-4	1.499729
13.848000	1.000000E-4	1.487084E-4	1.487084
13.873000	1.000000E-4	1.492984E-4	1.492984
13.845000	1.000000E-4	1.496779E-4	1.496779
13.886000	1.000000E-4	1.498044E-4	1.498044
13.848000	1.000000E-4	1.493406E-4	1.493406
13.894000	1.000000E-4	1.491300E-4	1.491300
13.864000	1.000000E-4	1.490035E-4	1.490035
13.896000	1.000000E-4	1.493407E-4	1.493407
13.887000	1.000000E-4	1.501838E-4	1.501838
13.891000	1.000000E-4	1.495514E-4	1.495514
13.906000	1.000000E-4	1.491721E-4	1.491721
13.901000	1.000000E-4	1.488769E-4	1.488769
13.924000	1.000000E-4	1.488771E-4	1.488771
13.896000	1.000000E-4	1.492143E-4	1.492143
13.936000	1.000000E-4	1.488771E-4	1.488771
13.900000	1.000000E-4	1.492566E-4	1.492565
13.945000	1.000000E-4	1.498886E-4	1.498886
13.916000	1.000000E-4	1.488349E-4	1.488349
13.948000	1.000000E-4	1.497201E-4	1.497201
13.938000	1.000000E-4	1.495935E-4	1.495935
13.960000	1.000000E-4	1.493829E-4	1.493829
13.958000	1.000000E-4	1.489192E-4	1.489192
13.955000	1.000000E-4	1.495515E-4	1.495515
13.975000	1.000000E-4	1.495515E-4	1.495515
13.951000	1.000000E-4	1.498465E-4	1.498466
13.989000	1.000000E-4	1.491721E-4	1.491721
13.952000	1.000000E-4	1.490456E-4	1.490456
13.997000	1.000000E-4	1.490036E-4	1.490036
13.977000	1.000000E-4	1.491300E-4	1.491300
13.998000	1.000000E-4	1.492564E-4	1.492564
13.997000	1.000000E-4	1.490036E-4	1.490036
13.995000	1.000000E-4	1.496357E-4	1.496358
14.012000	1.000000E-4	1.496358E-4	1.496358
13.990000	1.000000E-4	1.492564E-4	1.492564
14.026000	1.000000E-4	1.496779E-4	1.496779
13.991000	1.000000E-4	1.488771E-4	1.488771
14.036000	1.000000E-4	1.495514E-4	1.495514
14.008000	1.000000E-4	1.487928E-4	1.487928
14.039000	1.000000E-4	1.489614E-4	1.489614
14.028000	1.000000E-4	1.484977E-4	1.484977
14.051000	1.000000E-4	1.490456E-4	1.490456
14.048000	1.000000E-4	1.492985E-4	1.492985
14.048000	1.000000E-4	1.491300E-4	1.491299
14.066000	1.000000E-4	1.490458E-4	1.490457
14.046000	1.000000E-4	1.491301E-4	1.491301
14.081000	1.000000E-4	1.482870E-4	1.482870
14.046000	1.000000E-4	1.486663E-4	1.486663
14.092000	1.000000E-4	1.490457E-4	1.490457
14.062000	1.000000E-4	1.486664E-4	1.486663
14.093000	1.000000E-4	1.487507E-4	1.487507
14.081000	1.000000E-4	1.491299E-4	1.491299
14.105000	1.000000E-4	1.484977E-4	1.484977
14.103000	1.000000E-4	1.485820E-4	1.485820
14.102000	1.000000E-4	1.487084E-4	1.487084
14.119000	1.000000E-4	1.493829E-4	1.493829
14.100000	1.000000E-4	1.495093E-4	1.495093
14.134000	1.000000E-4	1.489613E-4	1.489613
14.100000	1.000000E-4	1.484556E-4	1.484556
14.146000	1.000000E-4	1.489613E-4	1.489613
14.118000	1.000000E-4	1.490456E-4	1.490456
14.157000	1.000000E-4	1.482448E-4	1.482448
14.138000	1.000000E-4	1.490036E-4	1.490036
14.163000	1.000000E-4	1.489191E-4	1.489191
14.161000	1.000000E-4	1.489613E-4	1.489613
14.163000	1.000000E-4	1.486242E-4	1.486241
14.179000	1.000000E-4	1.484134E-4	1.484134
14.161000	1.000000E-4	1.486664E-4	1.486663
14.194000	1.000000E-4	1.487506E-4	1.487506
14.160000	1.000000E-4	1.488772E-4	1.488771
14.204000	1.000000E-4	1.486243E-4	1.486243
14.176000	1.000000E-4	1.485820E-4	1.485820
14.215000	1.000000E-4	1.487506E-4	1.487506
14.194000	1.000000E-4	1.479496E-4	1.479496
14.217000	1.000000E-4	1.490458E-4	1.490457
14.213000	1.000000E-4	1.489615E-4	1.489615
14.214000	1.000000E-4	1.481185E-4	1.481185
14.228000	1.000000E-4	1.484978E-4	1.484978
14.210000	1.000000E-4	1.482027E-4	1.482027
14.241000	1.000000E-4	1.478654E-4	1.478654
14.209000	1.000000E-4	1.484555E-4	1.484555
14.250000	1.000000E-4	1.483291E-4	1.483291
14.224000	1.000000E-4	1.487084E-4	1.487084
14.262000	1.000000E-4	1.478234E-4	1.478234
14.242000	1.000000E-4	1.484555E-4	1.484555
14.266000	1.000000E-4	1.482448E-4	1.482448
14.262000	1.000000E-4	1.482869E-4	1.482869
14.264000	1.000000E-4	1.480760E-4	1.480760
14.278000	1.000000E-4	1.484976E-4	1.484976
14.263000	1.000000E-4	1.479075E-4	1.479075
14.292000	1.000000E-4	1.484976E-4	1.484976
14.263000	1.000000E-4	1.483291E-4	1.483291
14.304000	1.000000E-4	1.484133E-4	1.484133
14.277000	1.000000E-4	1.482449E-4	1.482449
14.315000	1.000000E-4	1.491722E-4	1.491722
14.295000	1.000000E-4	1.477389E-4	1.477389
14.319000	1.000000E-4	1.479919E-4	1.479919
14.316000	1.000000E-4	1.487084E-4	1.487084
14.317000	1.000000E-4	1.477811E-4	1.477811
14.332000	1.000000E-4	1.480761E-4	1.480761
14.318000	1.000000E-4	1.485820E-4	1.485820
14.346000	1.000000E-4	1.486242E-4	1.486241
14.316000	1.000000E-4	1.483714E-4	1.483714
14.356000	1.000000E-4	1.472753E-4	1.472753
14.331000	1.000000E-4	1.473596E-4	1.473596
14.367000	1.000000E-4	1.482025E-4	1.482025
14.349000	1.000000E-4	1.484135E-4	1.484134
14.373000	1.000000E-4	1.477813E-4	1.477813
14.369000	1.000000E-4	1.481606E-4	1.481606
14.373000	1.000000E-4	1.479919E-4	1.479919
14.386000	1.000000E-4	1.486664E-4	1.486664
14.372000	1.000000E-4	1.485399E-4	1.485399
14.400000	1.000000E-4	1.489615E-4	1.489615
14.370000	1.000000E-4	1.474861E-4	1.474861
14.411000	1.000000E-4	1.480342E-4	1.480341
14.384000	1.000000E-4	1.477391E-4	1.477391
14.421000	1.000000E-4	1.481605E-4	1.481605
14.402000	1.000000E-4	1.483712E-4	1.483712
14.427000	1.000000E-4	1.488350E-4	1.488350
14.422000	1.000000E-4	1.474861E-4	1.474861
14.426000	1.000000E-4	1.480763E-4	1.480763
14.439000	1.000000E-4	1.485399E-4	1.485399
14.426000	1.000000E-4	1.478234E-4	1.478233
14.454000	1.000000E-4	1.478655E-4	1.478655
14.425000	1.000000E-4	1.481183E-4	1.481183
14.465000	1.000000E-4	1.478233E-4	1.478232
14.439000	1.000000E-4	1.480762E-4	1.480762
14.477000	1.000000E-4	1.478654E-4	1.478654
14.458000	1.000000E-4	1.484135E-4	1.484135
14.485000	1.000000E-4	1.483291E-4	1.483291
14.479000	1.000000E-4	1.478654E-4	1.478654
14.484000	1.000000E-4	1.487085E-4	1.487085
14.496000	1.000000E-4	1.475704E-4	1.475704
14.484000	1.000000E-4	1.478233E-4	1.478233
14.507000	1.000000E-4	1.474440E-4	1.474439
14.483000	1.000000E-4	1.473597E-4	1.473596
14.522000	1.000000E-4	1.480341E-4	1.480341
14.495000	1.000000E-4	1.479920E-4	1.479920
14.533000	1.000000E-4	1.478654E-4	1.478654
14.514000	1.000000E-4	1.483713E-4	1.483713
14.540000	1.000000E-4	1.477811E-4	1.477811
14.534000	1.000000E-4	1.475283E-4	1.475283
14.540000	1.000000E-4	1.476969E-4	1.476969
14.552000	1.000000E-4	1.475282E-4	1.475282
14.540000	1.000000E-4	1.479498E-4	1.479498
14.563000	1.000000E-4	1.478233E-4	1.478233
14.539000	1.000000E-4	1.476125E-4	1.476125
14.578000	1.000000E-4	1.472334E-4	1.472334
14.552000	1.000000E-4	1.476968E-4	1.476968
14.589000	1.000000E-4	1.470224E-4	1.470224
14.570000	1.000000E-4	1.470646E-4	1.470646
14.595000	1.000000E-4	1.480341E-4	1.480341
14.590000	1.000000E-4	1.476126E-4	1.476125
14.596000	1.000000E-4	1.474859E-4	1.474859
14.607000	1.000000E-4	1.479076E-4	1.479076
14.597000	1.000000E-4	1.474861E-4	1.474861
14.618000	1.000000E-4	1.478233E-4	1.478232
14.595000	1.000000E-4	1.475704E-4	1.475704
14.633000	1.000000E-4	1.474439E-4	1.474439
14.607000	1.000000E-4	1.473595E-4	1.473595
14.643000	1.000000E-4	1.471489E-4	1.471489
14.625000	1.000000E-4	1.469803E-4	1.469803
14.650000	1.000000E-4	1.478231E-4	1.478231
14.645000	1.000000E-4	1.476546E-4	1.476546
14.652000	1.000000E-4	1.474439E-4	1.474439
14.662000	1.000000E-4	1.467695E-4	1.467695
14.653000	1.000000E-4	1.471489E-4	1.471489
14.676000	1.000000E-4	1.475282E-4	1.475282
14.651000	1.000000E-4	1.476967E-4	1.476967
14.689000	1.000000E-4	1.472753E-4	1.472753
14.664000	1.000000E-4	1.472332E-4	1.472331
14.700000	1.000000E-4	1.477390E-4	1.477390
14.681000	1.000000E-4	1.484135E-4	1.484134
14.707000	1.000000E-4	1.474017E-4	1.474017
14.700000	1.000000E-4	1.464745E-4	1.464745
14.707000	1.000000E-4	1.471910E-4	1.471910
14.716000	1.000000E-4	1.474439E-4	1.474439
14.706000	1.000000E-4	1.474018E-4	1.474018
14.727000	1.000000E-4	1.477390E-4	1.477390
14.705000	1.000000E-4	1.469382E-4	1.469382
14.740000	1.000000E-4	1.474861E-4	1.474861
14.717000	1.000000E-4	1.478234E-4	1.478233
14.753000	1.000000E-4	1.473174E-4	1.473174
14.733000	1.000000E-4	1.473176E-4	1.473176
14.758000	1.000000E-4	1.474018E-4	1.474017
14.752000	1.000000E-4	1.477390E-4	1.477390
14.761000	1.000000E-4	1.474018E-4	1.474018
14.769000	1.000000E-4	1.471910E-4	1.471910
14.760000	1.000000E-4	1.474019E-4	1.474019
14.779000	1.000000E-4	1.476126E-4	1.476126
14.760000	1.000000E-4	1.466852E-4	1.466852
14.795000	1.000000E-4	1.470646E-4	1.470646
14.771000	1.000000E-4	1.474439E-4	1.474439
14.807000	1.000000E-4	1.471068E-4	1.471068
14.788000	1.000000E-4	1.471910E-4	1.471910
14.814000	1.000000E-4	1.468538E-4	1.468538
14.807000	1.000000E-4	1.473175E-4	1.473175
14.816000	1.000000E-4	1.470647E-4	1.470646
14.824000	1.000000E-4	1.473597E-4	1.473596
14.815000	1.000000E-4	1.473175E-4	1.473175
14.837000	1.000000E-4	1.465166E-4	1.465166
14.814000	1.000000E-4	1.474861E-4	1.474861
14.848000	1.000000E-4	1.476126E-4	1.476125
14.825000	1.000000E-4	1.470647E-4	1.470646
14.859000	1.000000E-4	1.469804E-4	1.469804
14.840000	1.000000E-4	1.470225E-4	1.470225
14.867000	1.000000E-4	1.463902E-4	1.463902
14.859000	1.000000E-4	1.467696E-4	1.467696
14.868000	1.000000E-4	1.469382E-4	1.469382
14.876000	1.000000E-4	1.468538E-4	1.468538
14.868000	1.000000E-4	1.473597E-4	1.473597
14.887000	1.000000E-4	1.468961E-4	1.468961
14.868000	1.000000E-4	1.468961E-4	1.468961
14.901000	1.000000E-4	1.470224E-4	1.470224
14.878000	1.000000E-4	1.469381E-4	1.469381
14.911000	1.000000E-4	1.473597E-4	1.473597
14.893000	1.000000E-4	1.471069E-4	1.471068
14.919000	1.000000E-4	1.468540E-4	1.468540
14.912000	1.000000E-4	1.470227E-4	1.470227
14.922000	1.000000E-4	1.464746E-4	1.464746
14.928000	1.000000E-4	1.466853E-4	1.466853
14.921000	1.000000E-4	1.466854E-4	1.466854
14.938000	1.000000E-4	1.468540E-4	1.468540
14.920000	1.000000E-4	1.470225E-4	1.470225
14.952000	1.000000E-4	1.470225E-4	1.470225
14.930000	1.000000E-4	1.466432E-4	1.466432
14.963000	1.000000E-4	1.461373E-4	1.461373
14.946000	1.000000E-4	1.464326E-4	1.464326
14.973000	1.000000E-4	1.477391E-4	1.477391
14.964000	1.000000E-4	1.471911E-4	1.471911
14.974000	1.000000E-4	1.469804E-4	1.469804
14.980000	1.000000E-4	1.466011E-4	1.466011
14.975000	1.000000E-4	1.474441E-4	1.474441
14.991000	1.000000E-4	1.467696E-4	1.467696
14.974000	1.000000E-4	1.468117E-4	1.468117
15.006000	1.000000E-4	1.478656E-4	1.478655
14.982000	1.000000E-4	1.468540E-4	1.468540
15.018000	1.000000E-4	1.467276E-4	1.467276
14.999000	1.000000E-4	1.466432E-4	1.466432
15.025000	1.000000E-4	1.471068E-4	1.471068
15.016000	1.000000E-4	1.473598E-4	1.473598
15.028000	1.000000E-4	1.475705E-4	1.475705
15.026000	1.000000E-4	1.466853E-4	1.466853
15.028000	1.000000E-4	1.468539E-4	1.468539
15.042000	1.000000E-4	1.469805E-4	1.469805
15.027000	1.000000E-4	1.464746E-4	1.464746
15.057000	1.000000E-4	1.469381E-4	1.469381
15.036000	1.000000E-4	1.461373E-4	1.461373
15.069000	1.000000E-4	1.463060E-4	1.463060
15.051000	1.000000E-4	1.473597E-4	1.473597
15.078000	1.000000E-4	1.469804E-4	1.469804
15.069000	1.000000E-4	1.456316E-4	1.456316
15.081000	1.000000E-4	1.466011E-4	1.466011
15.080000	1.000000E-4	1.468118E-4	1.468118
15.083000	1.000000E-4	1.466852E-4	1.466852
15.097000	1.000000E-4	1.466853E-4	1.466853
15.083000	1.000000E-4	1.467274E-4	1.467274
15.111000	1.000000E-4	1.466853E-4	1.466853
15.091000	1.000000E-4	1.467276E-4	1.467275
15.123000	1.000000E-4	1.471490E-4	1.471490
15.105000	1.000000E-4	1.472333E-4	1.472333
15.133000	1.000000E-4	1.471912E-4	1.471912
15.124000	1.000000E-4	1.467696E-4	1.467696
15.137000	1.000000E-4	1.467275E-4	1.467275
15.136000	1.000000E-4	1.467276E-4	1.467276
15.140000	1.000000E-4	1.462217E-4	1.462217
15.153000	1.000000E-4	1.468118E-4	1.468118
15.140000	1.000000E-4	1.463903E-4	1.463903
15.168000	1.000000E-4	1.464324E-4	1.464324
15.147000	1.000000E-4	1.463481E-4	1.463481
15.180000	1.000000E-4	1.467697E-4	1.467697
15.162000	1.000000E-4	1.471489E-4	1.471489
15.190000	1.000000E-4	1.469804E-4	1.469804
15.173000	1.000000E-4	1.466011E-4	1.466011
15.194000	1.000000E-4	1.466011E-4	1.466012
15.192000	1.000000E-4	1.469382E-4	1.469382
15.196000	1.000000E-4	1.467696E-4	1.467696
15.208000	1.000000E-4	1.459687E-4	1.459687
15.196000	1.000000E-4	1.472754E-4	1.472754
15.223000	1.000000E-4	1.466432E-4	1.466432
15.204000	1.000000E-4	1.463060E-4	1.463059
15.236000	1.000000E-4	1.466011E-4	1.466011
15.217000	1.000000E-4	1.470226E-4	1.470226
15.246000	1.000000E-4	1.464746E-4	1.464746
15.236000	1.000000E-4	1.473598E-4	1.473598
15.252000	1.000000E-4	1.470646E-4	1.470646
15.247000	1.000000E-4	1.462638E-4	1.462638
15.254000	1.000000E-4	1.457158E-4	1.457158
15.264000	1.000000E-4	1.476549E-4	1.476549
15.252000	1.000000E-4	1.460952E-4	1.460952
15.279000	1.000000E-4	1.464746E-4	1.464746
15.259000	1.000000E-4	1.471911E-4	1.471911
15.291000	1.000000E-4	1.464746E-4	1.464746
15.273000	1.000000E-4	1.468962E-4	1.468962
15.300000	1.000000E-4	1.469382E-4	1.469382
15.284000	1.000000E-4	1.462216E-4	1.462216
15.307000	1.000000E-4	1.459687E-4	1.459687
15.303000	1.000000E-4	1.462639E-4	1.462638
15.309000	1.000000E-4	1.462216E-4	1.462216
15.319000	1.000000E-4	1.466853E-4	1.466853
15.308000	1.000000E-4	1.459687E-4	1.459687
15.333000	1.000000E-4	1.459266E-4	1.459266
15.316000	1.000000E-4	1.463059E-4	1.463059
15.345000	1.000000E-4	1.467275E-4	1.467275
15.328000	1.000000E-4	1.459687E-4	1.459687
15.355000	1.000000E-4	1.461795E-4	1.461795
15.339000	1.000000E-4	1.463480E-4	1.463480
15.362000	1.000000E-4	1.468961E-4	1.468960
15.356000	1.000000E-4	1.464746E-4	1.464746
15.365000	1.000000E-4	1.467696E-4	1.467696
15.374000	1.000000E-4	1.463060E-4	1.463060
15.364000	1.000000E-4	1.471489E-4	1.471489
15.387000	1.000000E-4	1.457579E-4	1.457579
15.370000	1.000000E-4	1.462216E-4	1.462216
15.400000	1.000000E-4	1.463902E-4	1.463902
15.382000	1.000000E-4	1.468539E-4	1.468539
15.409000	1.000000E-4	1.468117E-4	1.468117
15.393000	1.000000E-4	1.465588E-4	1.465588
15.415000	1.000000E-4	1.461374E-4	1.461374
15.410000	1.000000E-4	1.464324E-4	1.464324
15.421000	1.000000E-4	1.464324E-4	1.464324
15.427000	1.000000E-4	1.463903E-4	1.463903
15.419000	1.000000E-4	1.465167E-4	1.465167
15.442000	1.000000E-4	1.463060E-4	1.463060
15.424000	1.000000E-4	1.464747E-4	1.464746
15.455000	1.000000E-4	1.460109E-4	1.460109
15.435000	1.000000E-4	1.460108E-4	1.460107
15.464000	1.000000E-4	1.467696E-4	1.467696
15.448000	1.000000E-4	1.471912E-4	1.471912
15.469000	1.000000E-4	1.462638E-4	1.462638
15.465000	1.000000E-4	1.471069E-4	1.471068
15.474000	1.000000E-4	1.462217E-4	1.462217
15.481000	1.000000E-4	1.457158E-4	1.457158
15.473000	1.000000E-4	1.460954E-4	1.460954
15.496000	1.000000E-4	1.468117E-4	1.468117
15.479000	1.000000E-4	1.467274E-4	1.467274
15.507000	1.000000E-4	1.461373E-4	1.461373
15.488000	1.000000E-4	1.458423E-4	1.458423
15.517000	1.000000E-4	1.460531E-4	1.460530
15.499000	1.000000E-4	1.453365E-4	1.453365
15.521000	1.000000E-4	1.458845E-4	1.458845
15.514000	1.000000E-4	1.457580E-4	1.457580
15.523000	1.000000E-4	1.452100E-4	1.452100
15.530000	1.000000E-4	1.459687E-4	1.459687
15.522000	1.000000E-4	1.438612E-4	1.438612
15.543000	1.000000E-4	1.454627E-4	1.454627
15.527000	1.000000E-4	1.414586E-4	1.414586
15.554000	1.000000E-4	1.436926E-4	1.436926
15.538000	1.000000E-4	1.388030E-4	1.388030
15.565000	1.000000E-4	1.412477E-4	1.412477
15.548000	1.000000E-4	1.372014E-4	1.372013
15.571000	1.000000E-4	1.360212E-4	1.360211
15.565000	1.000000E-4	1.353468E-4	1.353468
15.576000	1.000000E-4	1.283918E-4	1.283918
15.582000	1.000000E-4	1.341666E-4	1.341666
15.576000	1.000000E-4	1.191608E-4	1.191608
15.597000	1.000000E-4	1.302464E-4	1.302464
15.588000	1.000000E-4	1.124166E-4	1.124166
15.610000	1.000000E-4	1.223220E-4	1.223220
15.594000	1.000000E-4	1.054195E-4	1.054195
15.621000	1.000000E-4	1.115314E-4	1.115314
15.605000	1.000000E-4	1.021318E-4	1.021317
15.627000	1.000000E-4	9.825391E-5	0.982539
15.622000	1.000000E-4	9.732653E-5	0.973265
15.633000	1.000000E-4	8.539789E-5	0.853979
15.639000	1.000000E-4	9.218404E-5	0.921840
15.635000	1.000000E-4	7.486018E-5	0.748602
15.654000	1.000000E-4	8.560855E-5	0.856085
15.647000	1.000000E-4	6.782088E-5	0.678209
15.668000	1.000000E-4	7.759996E-5	0.776000
15.652000	1.000000E-4	6.246771E-5	0.624677
15.680000	1.000000E-4	6.765224E-5	0.676522
15.663000	1.000000E-4	5.934845E-5	0.593485
15.686000	1.000000E-4	5.880055E-5	0.588005
15.680000	1.000000E-4	5.808408E-5	0.580841
15.691000	1.000000E-4	5.074972E-5	0.507497
15.695000	1.000000E-4	5.483831E-5	0.548383
15.701000	1.000000E-4	4.463791E-5	0.446379
15.710000	1.000000E-4	5.176134E-5	0.517613
15.702000	1.000000E-4	4.122366E-5	0.412237
15.722000	1.000000E-4	4.657678E-5	0.465768
15.706000	1.000000E-4	3.806238E-5	0.380624
15.734000	1.000000E-4	4.168733E-5	0.416873
15.716000	1.000000E-4	3.637634E-5	0.363763
15.737000	1.000000E-4	3.654482E-5	0.365448
15.731000	1.000000E-4	3.506963E-5	0.350696
15.743000	1.000000E-4	3.136032E-5	0.313603
15.747000	1.000000E-4	3.346792E-5	0.334679
15.754000	1.000000E-4	2.760889E-5	0.276089
15.762000	1.000000E-4	3.136027E-5	0.313603
15.756000	1.000000E-4	2.588080E-5	0.258808
15.775000	1.000000E-4	2.781966E-5	0.278197
15.762000	1.000000E-4	2.322507E-5	0.232251
15.789000	1.000000E-4	2.495347E-5	0.249535
15.774000	1.000000E-4	2.259286E-5	0.225929
15.795000	1.000000E-4	2.217142E-5	0.221714
15.789000	1.000000E-4	2.170778E-5	0.217078
15.801000	1.000000E-4	1.993734E-5	0.199373
15.806000	1.000000E-4	2.082253E-5	0.208225
15.812000	1.000000E-4	1.896789E-5	0.189679
15.820000	1.000000E-4	1.968445E-5	0.196844
15.814000	1.000000E-4	1.728187E-5	0.172819
15.832000	1.000000E-4	1.854642E-5	0.185464
15.820000	1.000000E-4	1.686041E-5	0.168604
15.846000	1.000000E-4	1.723968E-5	0.172397
15.831000	1.000000E-4	1.664960E-5	0.166496
15.852000	1.000000E-4	1.702904E-5	0.170290
15.845000	1.000000E-4	1.648108E-5	0.164811
15.864000	1.000000E-4	1.551159E-5	0.155116
15.862000	1.000000E-4	1.546941E-5	0.154694
15.868000	1.000000E-4	1.483716E-5	0.148372
15.876000	1.000000E-4	1.589093E-5	0.158909
15.871000	1.000000E-4	1.445779E-5	0.144578
15.888000	1.000000E-4	1.428916E-5	0.142892
15.875000	1.000000E-4	1.433130E-5	0.143313
15.901000	1.000000E-4	1.412054E-5	0.141205
15.884000	1.000000E-4	1.399415E-5	0.139942
15.905000	1.000000E-4	1.340405E-5	0.134041
15.900000	1.000000E-4	1.336188E-5	0.133619
15.918000	1.000000E-4	1.306688E-5	0.130669
15.915000	1.000000E-4	1.382547E-5	0.138255
15.922000	1.000000E-4	1.272965E-5	0.127297
15.930000	1.000000E-4	1.331976E-5	0.133198
15.926000	1.000000E-4	1.310896E-5	0.131090
15.943000	1.000000E-4	1.306685E-5	0.130668
15.930000	1.000000E-4	1.222379E-5	0.122238
15.957000	1.000000E-4	1.226594E-5	0.122659
15.940000	1.000000E-4	1.310889E-5	0.131089
15.961000	1.000000E-4	1.298257E-5	0.129826
15.956000	1.000000E-4	1.230810E-5	0.123081
15.973000	1.000000E-4	1.192879E-5	0.119288
15.971000	1.000000E-4	1.154930E-5	0.115493
15.977000	1.000000E-4	1.159154E-5	0.115915
15.984000	1.000000E-4	1.142278E-5	0.114228
15.980000	1.000000E-4	1.163370E-5	0.116337
15.997000	1.000000E-4	1.159155E-5	0.115915
15.984000	1.000000E-4	1.091704E-5	0.109170
16.009000	1.000000E-4	1.150717E-5	0.115072
15.994000	1.000000E-4	1.184448E-5	0.118445
16.017000	1.000000E-4	1.188649E-5	0.118865
16.010000	1.000000E-4	1.095926E-5	0.109593
16.031000	1.000000E-4	1.125427E-5	0.112543
16.028000	1.000000E-4	1.138076E-5	0.113808
16.037000	1.000000E-4	1.159161E-5	0.115916
16.046000	1.000000E-4	1.146499E-5	0.114650
16.041000	1.000000E-4	1.074852E-5	0.107485
16.058000	1.000000E-4	1.100142E-5	0.110014
16.044000	1.000000E-4	1.112778E-5	0.111278
16.072000	1.000000E-4	1.066419E-5	0.106642
16.053000	1.000000E-4	1.083280E-5	0.108328
16.075000	1.000000E-4	1.138073E-5	0.113807
16.068000	1.000000E-4	1.133858E-5	0.113386
16.088000	1.000000E-4	1.108567E-5	0.110857
16.086000	1.000000E-4	1.074850E-5	0.107485
16.094000	1.000000E-4	1.087497E-5	0.108750
16.102000	1.000000E-4	1.146504E-5	0.114650
16.097000	1.000000E-4	1.057985E-5	0.105798
16.114000	1.000000E-4	1.138071E-5	0.113807
16.101000	1.000000E-4	1.100141E-5	0.110014
16.128000	1.000000E-4	1.045336E-5	0.104534
16.112000	1.000000E-4	1.074841E-5	0.107484
16.138000	1.000000E-4	1.095922E-5	0.109592
16.126000	1.000000E-4	1.049556E-5	0.104956
16.147000	1.000000E-4	1.070624E-5	0.107062
16.144000	1.000000E-4	1.100141E-5	0.110014
16.152000	1.000000E-4	1.036913E-5	0.103691
16.160000	1.000000E-4	1.074850E-5	0.107485
16.154000	1.000000E-4	1.133862E-5	0.113386
16.170000	1.000000E-4	1.133863E-5	0.113386
16.160000	1.000000E-4	1.015843E-5	0.101584
16.185000	1.000000E-4	1.070626E-5	0.107063
16.169000	1.000000E-4	1.045335E-5	0.104533
16.195000	1.000000E-4	1.091711E-5	0.109171
16.184000	1.000000E-4	1.066421E-5	0.106642
16.203000	1.000000E-4	1.087505E-5	0.108751
16.201000	1.000000E-4	1.024265E-5	0.102426
16.208000	1.000000E-4	1.062206E-5	0.106221
16.217000	1.000000E-4	1.045346E-5	0.104535
16.211000	1.000000E-4	1.079063E-5	0.107906
16.229000	1.000000E-4	1.049558E-5	0.104956
16.218000	1.000000E-4	1.087505E-5	0.108750
16.241000	1.000000E-4	1.079065E-5	0.107906
16.226000	1.000000E-4	1.062207E-5	0.106221
16.253000	1.000000E-4	1.083288E-5	0.108329
16.244000	1.000000E-4	1.104360E-5	0.110436
16.261000	1.000000E-4	1.091718E-5	0.109172
16.259000	1.000000E-4	1.057984E-5	0.105798
16.265000	1.000000E-4	1.045344E-5	0.104534
16.274000	1.000000E-4	1.066415E-5	0.106641
16.270000	1.000000E-4	1.112796E-5	0.111280
16.287000	1.000000E-4	1.117001E-5	0.111700
16.275000	1.000000E-4	1.112787E-5	0.111279
16.299000	1.000000E-4	1.024275E-5	0.102427
16.286000	1.000000E-4	1.045345E-5	0.104534
16.311000	1.000000E-4	1.095925E-5	0.109593
16.301000	1.000000E-4	1.053780E-5	0.105378
16.318000	1.000000E-4	1.015829E-5	0.101583
16.316000	1.000000E-4	1.053772E-5	0.105377
16.323000	1.000000E-4	1.049556E-5	0.104956
16.330000	1.000000E-4	1.066411E-5	0.106641
16.326000	1.000000E-4	1.049563E-5	0.104956
16.341000	1.000000E-4	1.104353E-5	0.110435
16.329000	1.000000E-4	1.083278E-5	0.108328
16.353000	1.000000E-4	1.045346E-5	0.104535
16.337000	1.000000E-4	1.074848E-5	0.107485
16.362000	1.000000E-4	1.070637E-5	0.107064
16.351000	1.000000E-4	1.091704E-5	0.109170
16.368000	1.000000E-4	1.045350E-5	0.104535
16.366000	1.000000E-4	1.074849E-5	0.107485
16.373000	1.000000E-4	1.007403E-5	0.100740
16.379000	1.000000E-4	9.947588E-6	0.099476
16.376000	1.000000E-4	1.070632E-5	0.107063
16.391000	1.000000E-4	1.003194E-5	0.100319
16.379000	1.000000E-4	1.070635E-5	0.107064
16.401000	1.000000E-4	1.007410E-5	0.100741
16.388000	1.000000E-4	1.015840E-5	0.101584
16.413000	1.000000E-4	1.007406E-5	0.100741
16.402000	1.000000E-4	1.074845E-5	0.107485
16.421000	1.000000E-4	1.036913E-5	0.103691
16.418000	1.000000E-4	1.045344E-5	0.104534
16.425000	1.000000E-4	1.079066E-5	0.107907
16.431000	1.000000E-4	1.045348E-5	0.104535
16.428000	1.000000E-4	1.066422E-5	0.106642
16.444000	1.000000E-4	1.066420E-5	0.106642
16.432000	1.000000E-4	1.062208E-5	0.106221
16.457000	1.000000E-4	1.041140E-5	0.104114
16.443000	1.000000E-4	1.070633E-5	0.107063
16.467000	1.000000E-4	1.057998E-5	0.105800
16.457000	1.000000E-4	1.121207E-5	0.112121
16.476000	1.000000E-4	1.057989E-5	0.105799
16.474000	1.000000E-4	1.066428E-5	0.106643
16.483000	1.000000E-4	1.007403E-5	0.100740
16.490000	1.000000E-4	1.079064E-5	0.107906
16.485000	1.000000E-4	1.070632E-5	0.107063
16.501000	1.000000E-4	1.091709E-5	0.109171
16.490000	1.000000E-4	1.045338E-5	0.104534
16.514000	1.000000E-4	1.087492E-5	0.108749
16.501000	1.000000E-4	1.028488E-5	0.102849
16.526000	1.000000E-4	1.036916E-5	0.103692
16.516000	1.000000E-4	1.074842E-5	0.107484
16.535000	1.000000E-4	1.028479E-5	0.102848
16.533000	1.000000E-4	1.079068E-5	0.107907
16.541000	1.000000E-4	1.087491E-5	0.108749
16.547000	1.000000E-4	1.095935E-5	0.109594
16.545000	1.000000E-4	1.108577E-5	0.110858
16.559000	1.000000E-4	1.062208E-5	0.106221
16.551000	1.000000E-4	1.074855E-5	0.107485
16.572000	1.000000E-4	1.045338E-5	0.104534
16.560000	1.000000E-4	9.989867E-6	0.099899
16.584000	1.000000E-4	1.070638E-5	0.107064
16.574000	1.000000E-4	1.074856E-5	0.107486
16.592000	1.000000E-4	1.032697E-5	0.103270
16.589000	1.000000E-4	1.070635E-5	0.107063
16.598000	1.000000E-4	1.108564E-5	0.110856
16.603000	1.000000E-4	1.057986E-5	0.105799
16.601000	1.000000E-4	1.100142E-5	0.110014
16.613000	1.000000E-4	9.821166E-6	0.098212
16.605000	1.000000E-4	1.020050E-5	0.102005
16.627000	1.000000E-4	1.146506E-5	0.114651
16.615000	1.000000E-4	1.079068E-5	0.107907
16.638000	1.000000E-4	1.066412E-5	0.106641
16.628000	1.000000E-4	1.057986E-5	0.105799
16.646000	1.000000E-4	1.070637E-5	0.107064
16.643000	1.000000E-4	1.020045E-5	0.102005
16.653000	1.000000E-4	1.104362E-5	0.110436
16.658000	1.000000E-4	1.091703E-5	0.109170
16.655000	1.000000E-4	1.036914E-5	0.103691
16.669000	1.000000E-4	1.041131E-5	0.104113
16.661000	1.000000E-4	1.041137E-5	0.104114
16.681000	1.000000E-4	1.024269E-5	0.102427
16.669000	1.000000E-4	1.100139E-5	0.110014
16.692000	1.000000E-4	1.062207E-5	0.106221
16.682000	1.000000E-4	1.028486E-5	0.102849
16.702000	1.000000E-4	1.028488E-5	0.102849
16.698000	1.000000E-4	1.057986E-5	0.105799
16.707000	1.000000E-4	1.066425E-5	0.106643
16.708000	1.000000E-4	1.074850E-5	0.107485
16.710000	1.000000E-4	1.095917E-5	0.109592
16.722000	1.000000E-4	9.905404E-6	0.099054
16.714000	1.000000E-4	9.989765E-6	0.099898
16.735000	1.000000E-4	1.053784E-5	0.105378
16.723000	1.000000E-4	9.947558E-6	0.099476
16.746000	1.000000E-4	1.070635E-5	0.107064
16.736000	1.000000E-4	1.070641E-5	0.107064
16.755000	1.000000E-4	1.024264E-5	0.102426
16.752000	1.000000E-4	1.041129E-5	0.104113
16.761000	1.000000E-4	1.066425E-5	0.106643
16.767000	1.000000E-4	1.003182E-5	0.100318
16.766000	1.000000E-4	1.049561E-5	0.104956
16.778000	1.000000E-4	1.041134E-5	0.104113
16.771000	1.000000E-4	1.015835E-5	0.101583
16.792000	1.000000E-4	9.821130E-6	0.098211
16.780000	1.000000E-4	1.070643E-5	0.107064
16.804000	1.000000E-4	1.057994E-5	0.105799
16.795000	1.000000E-4	1.100132E-5	0.110013
16.812000	1.000000E-4	1.062206E-5	0.106221
16.811000	1.000000E-4	1.079062E-5	0.107906
16.820000	1.000000E-4	1.032694E-5	0.103269
16.821000	1.000000E-4	1.057985E-5	0.105799
16.825000	1.000000E-4	1.083274E-5	0.108327
16.838000	1.000000E-4	1.095917E-5	0.109592
16.830000	1.000000E-4	1.036911E-5	0.103691
16.850000	1.000000E-4	1.036914E-5	0.103691
16.838000	1.000000E-4	1.053778E-5	0.105378
16.862000	1.000000E-4	1.112791E-5	0.111279
16.853000	1.000000E-4	1.020051E-5	0.102005
16.871000	1.000000E-4	1.062207E-5	0.106221
16.868000	1.000000E-4	1.007404E-5	0.100740
16.877000	1.000000E-4	1.066409E-5	0.106641
16.879000	1.000000E-4	1.066412E-5	0.106641
16.882000	1.000000E-4	1.074851E-5	0.107485
16.895000	1.000000E-4	1.015840E-5	0.101584
16.888000	1.000000E-4	1.024267E-5	0.102427
16.908000	1.000000E-4	1.087493E-5	0.108749
16.896000	1.000000E-4	1.003199E-5	0.100320
16.919000	1.000000E-4	1.011622E-5	0.101162
16.910000	1.000000E-4	1.079062E-5	0.107906
16.927000	1.000000E-4	1.091707E-5	0.109171
16.924000	1.000000E-4	1.024266E-5	0.102427
16.934000	1.000000E-4	1.036912E-5	0.103691
16.935000	1.000000E-4	1.032704E-5	0.103270
16.937000	1.000000E-4	1.032700E-5	0.103270
16.948000	1.000000E-4	1.057995E-5	0.105799
16.941000	1.000000E-4	1.032701E-5	0.103270
16.961000	1.000000E-4	1.112795E-5	0.111279
16.949000	1.000000E-4	1.091707E-5	0.109171
16.971000	1.000000E-4	1.020050E-5	0.102005
16.962000	1.000000E-4	1.053772E-5	0.105377
16.979000	1.000000E-4	1.036910E-5	0.103691
16.976000	1.000000E-4	1.020058E-5	0.102006
16.985000	1.000000E-4	1.049561E-5	0.104956
16.985000	1.000000E-4	1.100137E-5	0.110014
16.989000	1.000000E-4	1.041126E-5	0.104113
17.001000	1.000000E-4	9.610432E-6	0.096104
16.994000	1.000000E-4	1.079074E-5	0.107907
17.012000	1.000000E-4	1.066417E-5	0.106642
17.002000	1.000000E-4	1.015837E-5	0.101584
17.022000	1.000000E-4	1.070651E-5	0.107065
17.014000	1.000000E-4	9.821125E-6	0.098211
17.031000	1.000000E-4	1.032703E-5	0.103270
17.027000	1.000000E-4	1.036918E-5	0.103692
17.036000	1.000000E-4	1.066419E-5	0.106642
17.036000	1.000000E-4	1.032696E-5	0.103270
17.041000	1.000000E-4	1.015850E-5	0.101585
17.053000	1.000000E-4	9.863338E-6	0.098633
17.046000	1.000000E-4	1.095919E-5	0.109592
17.064000	1.000000E-4	1.062198E-5	0.106220
17.054000	1.000000E-4	1.007403E-5	0.100740
17.074000	1.000000E-4	1.036914E-5	0.103691
17.066000	1.000000E-4	1.066416E-5	0.106642
17.085000	1.000000E-4	1.066421E-5	0.106642
17.080000	1.000000E-4	1.066425E-5	0.106642
17.090000	1.000000E-4	9.989816E-6	0.099898
17.090000	1.000000E-4	1.024277E-5	0.102428
17.093000	1.000000E-4	1.020060E-5	0.102006
17.106000	1.000000E-4	1.032703E-5	0.103270
17.100000	1.000000E-4	1.095921E-5	0.109592
17.118000	1.000000E-4	1.066415E-5	0.106641
17.108000	1.000000E-4	1.003196E-5	0.100320
17.126000	1.000000E-4	1.003205E-5	0.100320
17.120000	1.000000E-4	1.053781E-5	0.105378
17.137000	1.000000E-4	9.863308E-6	0.098633
17.135000	1.000000E-4	1.020051E-5	0.102005
17.144000	1.000000E-4	1.024265E-5	0.102427
17.145000	1.000000E-4	1.066422E-5	0.106642
17.149000	1.000000E-4	1.053772E-5	0.105377
17.160000	1.000000E-4	1.007406E-5	0.100741
17.155000	1.000000E-4	1.112791E-5	0.111279
17.173000	1.000000E-4	9.399541E-6	0.093995
17.164000	1.000000E-4	1.011615E-5	0.101161
17.183000	1.000000E-4	1.011629E-5	0.101163
17.176000	1.000000E-4	1.011631E-5	0.101163
17.192000	1.000000E-4	1.070634E-5	0.107063
17.188000	1.000000E-4	1.007412E-5	0.100741
17.200000	1.000000E-4	1.028487E-5	0.102849
17.201000	1.000000E-4	1.036918E-5	0.103692
17.204000	1.000000E-4	1.011627E-5	0.101163
17.215000	1.000000E-4	1.045342E-5	0.104534
17.207000	1.000000E-4	1.133869E-5	0.113387
17.227000	1.000000E-4	9.694680E-6	0.096947
17.220000	1.000000E-4	1.032698E-5	0.103270
17.237000	1.000000E-4	1.053774E-5	0.105377
17.231000	1.000000E-4	1.003187E-5	0.100319
17.241000	1.000000E-4	1.003193E-5	0.100319
17.244000	1.000000E-4	1.091712E-5	0.109171
17.247000	1.000000E-4	1.057995E-5	0.105799
17.260000	1.000000E-4	1.062202E-5	0.106220
17.254000	1.000000E-4	1.083276E-5	0.108328
17.269000	1.000000E-4	1.083290E-5	0.108329
17.261000	1.000000E-4	1.024267E-5	0.102427
17.282000	1.000000E-4	1.083276E-5	0.108328
17.275000	1.000000E-4	1.095926E-5	0.109593
17.290000	1.000000E-4	1.024266E-5	0.102427
17.284000	1.000000E-4	1.036916E-5	0.103692
17.296000	1.000000E-4	1.074851E-5	0.107485
17.298000	1.000000E-4	1.028482E-5	0.102848
17.302000	1.000000E-4	1.036917E-5	0.103692
17.314000	1.000000E-4	1.011626E-5	0.101163
17.306000	1.000000E-4	1.053777E-5	0.105378
17.323000	1.000000E-4	1.053776E-5	0.105378
17.315000	1.000000E-4	1.015847E-5	0.101585
17.335000	1.000000E-4	1.007412E-5	0.100741
17.326000	1.000000E-4	1.045347E-5	0.104535
17.343000	1.000000E-4	1.015848E-5	0.101585
17.338000	1.000000E-4	1.108575E-5	0.110857
17.351000	1.000000E-4	1.057994E-5	0.105799
17.351000	1.000000E-4	1.011622E-5	0.101162
17.353000	1.000000E-4	1.074848E-5	0.107485
17.366000	1.000000E-4	1.032703E-5	0.103270
17.360000	1.000000E-4	1.036918E-5	0.103692
17.375000	1.000000E-4	1.087499E-5	0.108750
17.367000	1.000000E-4	9.694706E-6	0.096947
17.383000	1.000000E-4	1.024272E-5	0.102427
17.376000	1.000000E-4	1.032706E-5	0.103271
17.393000	1.000000E-4	9.863283E-6	0.098633
17.388000	1.000000E-4	1.053775E-5	0.105377
17.398000	1.000000E-4	1.053770E-5	0.105377
17.400000	1.000000E-4	1.053776E-5	0.105378
17.403000	1.000000E-4	9.821103E-6	0.098211
17.415000	1.000000E-4	1.100142E-5	0.110014
17.408000	1.000000E-4	1.011629E-5	0.101163
17.423000	1.000000E-4	1.020056E-5	0.102006
17.417000	1.000000E-4	1.049558E-5	0.104956
17.436000	1.000000E-4	1.020057E-5	0.102006
17.427000	1.000000E-4	1.049555E-5	0.104956
17.444000	1.000000E-4	1.024267E-5	0.102427
17.440000	1.000000E-4	1.007413E-5	0.100741
17.451000	1.000000E-4	1.112785E-5	0.111278
17.454000	1.000000E-4	1.100145E-5	0.110015
17.456000	1.000000E-4	1.066422E-5	0.106642
17.469000	1.000000E-4	1.138080E-5	0.113808
17.462000	1.000000E-4	1.057998E-5	0.105800
17.478000	1.000000E-4	1.045345E-5	0.104535
17.473000	1.000000E-4	1.057995E-5	0.105799
17.490000	1.000000E-4	1.011622E-5	0.101162
17.483000	1.000000E-4	1.091711E-5	0.109171
17.499000	1.000000E-4	1.091715E-5	0.109171
17.496000	1.000000E-4	1.011632E-5	0.101163
17.505000	1.000000E-4	1.024267E-5	0.102427
17.509000	1.000000E-4	9.947571E-6	0.099476
17.511000	1.000000E-4	1.100144E-5	0.110014
17.525000	1.000000E-4	1.011622E-5	0.101162
17.517000	1.000000E-4	9.736801E-6	0.097368
17.532000	1.000000E-4	1.083287E-5	0.108329
17.527000	1.000000E-4	1.100139E-5	0.110014
17.546000	1.000000E-4	9.821163E-6	0.098212
17.538000	1.000000E-4	1.011621E-5	0.101162
17.554000	1.000000E-4	1.049562E-5	0.104956
17.551000	1.000000E-4	1.095929E-5	0.109593
17.561000	1.000000E-4	1.028485E-5	0.102848
17.564000	1.000000E-4	1.007404E-5	0.100740
17.566000	1.000000E-4	1.062212E-5	0.106221
17.580000	1.000000E-4	1.049558E-5	0.104956
17.572000	1.000000E-4	1.074852E-5	0.107485
17.589000	1.000000E-4	1.057991E-5	0.105799
17.584000	1.000000E-4	1.041130E-5	0.104113
17.602000	1.000000E-4	1.020054E-5	0.102005
17.594000	1.000000E-4	9.947720E-6	0.099477
17.610000	1.000000E-4	9.526063E-6	0.095261
17.607000	1.000000E-4	1.079071E-5	0.107907
17.618000	1.000000E-4	1.003200E-5	0.100320
17.621000	1.000000E-4	1.024258E-5	0.102426
17.623000	1.000000E-4	1.028485E-5	0.102848
17.637000	1.000000E-4	9.821206E-6	0.098212
17.630000	1.000000E-4	1.053775E-5	0.105377
17.646000	1.000000E-4	1.003199E-5	0.100320
17.643000	1.000000E-4	1.024266E-5	0.102427
17.660000	1.000000E-4	1.041122E-5	0.104112
17.653000	1.000000E-4	1.041134E-5	0.104113
17.668000	1.000000E-4	9.273134E-6	0.092731
17.665000	1.000000E-4	1.015838E-5	0.101584
17.675000	1.000000E-4	1.045345E-5	0.104535
17.680000	1.000000E-4	1.003195E-5	0.100319
17.682000	1.000000E-4	1.104363E-5	0.110436
17.694000	1.000000E-4	1.049568E-5	0.104957
17.689000	1.000000E-4	1.041133E-5	0.104113
17.705000	1.000000E-4	1.028483E-5	0.102848
17.699000	1.000000E-4	1.070631E-5	0.107063
17.719000	1.000000E-4	1.087497E-5	0.108750
17.711000	1.000000E-4	1.003195E-5	0.100319
17.725000	1.000000E-4	9.989839E-6	0.099898
17.724000	1.000000E-4	1.015834E-5	0.101583
17.732000	1.000000E-4	1.049553E-5	0.104955
17.737000	1.000000E-4	9.863293E-6	0.098633
17.739000	1.000000E-4	1.032711E-5	0.103271
17.751000	1.000000E-4	1.066423E-5	0.106642
17.746000	1.000000E-4	1.117004E-5	0.111700
17.761000	1.000000E-4	1.053774E-5	0.105377
17.757000	1.000000E-4	1.053778E-5	0.105378
17.773000	1.000000E-4	1.045352E-5	0.104535
17.766000	1.000000E-4	1.011613E-5	0.101161
17.781000	1.000000E-4	1.032698E-5	0.103270
17.778000	1.000000E-4	1.083281E-5	0.108328
17.788000	1.000000E-4	1.041132E-5	0.104113
17.792000	1.000000E-4	1.049557E-5	0.104956
17.794000	1.000000E-4	9.483975E-6	0.094840
17.806000	1.000000E-4	1.045351E-5	0.104535
17.801000	1.000000E-4	1.062200E-5	0.106220
17.817000	1.000000E-4	1.066427E-5	0.106643
17.813000	1.000000E-4	1.066428E-5	0.106643
17.830000	1.000000E-4	1.020057E-5	0.102006
17.822000	1.000000E-4	1.045347E-5	0.104535
17.837000	1.000000E-4	9.694768E-6	0.096948
17.836000	1.000000E-4	9.736861E-6	0.097369
17.844000	1.000000E-4	1.041127E-5	0.104113
17.848000	1.000000E-4	9.821155E-6	0.098212
17.850000	1.000000E-4	1.003181E-5	0.100318
17.860000	1.000000E-4	1.028493E-5	0.102849
17.856000	1.000000E-4	1.091709E-5	0.109171
17.870000	1.000000E-4	9.905486E-6	0.099055
17.868000	1.000000E-4	1.041123E-5	0.104112
17.883000	1.000000E-4	1.057988E-5	0.105799
17.876000	1.000000E-4	1.057982E-5	0.105798
17.889000	1.000000E-4	9.694755E-6	0.096948
17.889000	1.000000E-4	1.062204E-5	0.106220
17.898000	1.000000E-4	1.041129E-5	0.104113
17.902000	1.000000E-4	1.049556E-5	0.104956
17.905000	1.000000E-4	1.020053E-5	0.102005
17.918000	1.000000E-4	1.036916E-5	0.103692
17.912000	1.000000E-4	1.020059E-5	0.102006
17.930000	1.000000E-4	9.736827E-6	0.097368
17.924000	1.000000E-4	1.007413E-5	0.100741
17.943000	1.000000E-4	1.049563E-5	0.104956
17.936000	1.000000E-4	9.736804E-6	0.097368
17.951000	1.000000E-4	9.905490E-6	0.099055
17.952000	1.000000E-4	1.020051E-5	0.102005
17.960000	1.000000E-4	1.020060E-5	0.102006
17.965000	1.000000E-4	1.070633E-5	0.107063
17.966000	1.000000E-4	1.117009E-5	0.111701
17.980000	1.000000E-4	1.032694E-5	0.103269
17.973000	1.000000E-4	1.117008E-5	0.111701
17.990000	1.000000E-4	1.062207E-5	0.106221
17.985000	1.000000E-4	1.045348E-5	0.104535
18.004000	1.000000E-4	1.070632E-5	0.107063
17.996000	1.000000E-4	1.028482E-5	0.102848
18.011000	1.000000E-4	1.066425E-5	0.106642
18.009000	1.000000E-4	1.053770E-5	0.105377
18.018000	1.000000E-4	1.024264E-5	0.102426
18.024000	1.000000E-4	1.020057E-5	0.102006
18.027000	1.000000E-4	1.024273E-5	0.102427
18.040000	1.000000E-4	1.053774E-5	0.105377
18.034000	1.000000E-4	1.079073E-5	0.107907
18.048000	1.000000E-4	1.070643E-5	0.107064
18.045000	1.000000E-4	1.079074E-5	0.107907
18.062000	1.000000E-4	1.041127E-5	0.104113
18.055000	1.000000E-4	1.028490E-5	0.102849
18.071000	1.000000E-4	1.036914E-5	0.103691
18.068000	1.000000E-4	1.108574E-5	0.110857
18.076000	1.000000E-4	9.736846E-6	0.097368
18.083000	1.000000E-4	1.045345E-5	0.104534
18.083000	1.000000E-4	1.049561E-5	0.104956
18.095000	1.000000E-4	1.079075E-5	0.107907
18.094000	1.000000E-4	1.011621E-5	0.101162
18.106000	1.000000E-4	9.694764E-6	0.096948
18.101000	1.000000E-4	1.079071E-5	0.107907
18.118000	1.000000E-4	1.024273E-5	0.102427
18.110000	1.000000E-4	1.083281E-5	0.108328
18.124000	1.000000E-4	1.087492E-5	0.108749
18.125000	1.000000E-4	1.074850E-5	0.107485
18.131000	1.000000E-4	1.015846E-5	0.101585
18.137000	1.000000E-4	9.947618E-6	0.099476
18.138000	1.000000E-4	1.036914E-5	0.103691
18.151000	1.000000E-4	1.036921E-5	0.103692
18.149000	1.000000E-4	1.011610E-5	0.101161
18.160000	1.000000E-4	1.062205E-5	0.106220
18.156000	1.000000E-4	1.083281E-5	0.108328
18.171000	1.000000E-4	1.015847E-5	0.101585
18.165000	1.000000E-4	1.070635E-5	0.107063
18.180000	1.000000E-4	1.003193E-5	0.100319
18.178000	1.000000E-4	1.036911E-5	0.103691
18.184000	1.000000E-4	9.020261E-6	0.090203
18.189000	1.000000E-4	9.863334E-6	0.098633
18.189000	1.000000E-4	1.011622E-5	0.101162
18.205000	1.000000E-4	1.007409E-5	0.100741
18.200000	1.000000E-4	9.610471E-6	0.096105
18.211000	1.000000E-4	1.070638E-5	0.107064
18.207000	1.000000E-4	1.057992E-5	0.105799
18.223000	1.000000E-4	9.947675E-6	0.099477
18.216000	1.000000E-4	1.079066E-5	0.107907
18.229000	1.000000E-4	9.905387E-6	0.099054
18.230000	1.000000E-4	1.007407E-5	0.100741
18.236000	1.000000E-4	1.015835E-5	0.101583
18.242000	1.000000E-4	1.079058E-5	0.107906
18.249000	1.000000E-4	9.905432E-6	0.099054
18.257000	1.000000E-4	1.041128E-5	0.104113
18.253000	1.000000E-4	1.045346E-5	0.104535
18.264000	1.000000E-4	9.441753E-6	0.094418
18.258000	1.000000E-4	1.049566E-5	0.104957
18.275000	1.000000E-4	1.074846E-5	0.107485
18.268000	1.000000E-4	1.045352E-5	0.104535
18.282000	1.000000E-4	1.049555E-5	0.104955
18.282000	1.000000E-4	1.011627E-5	0.101163
18.288000	1.000000E-4	1.032701E-5	0.103270
18.295000	1.000000E-4	1.015842E-5	0.101584
18.294000	1.000000E-4	1.083283E-5	0.108328
18.307000	1.000000E-4	1.045344E-5	0.104534
18.305000	1.000000E-4	9.905445E-6	0.099054
18.316000	1.000000E-4	1.003197E-5	0.100320
18.310000	1.000000E-4	1.032701E-5	0.103270
18.327000	1.000000E-4	1.032705E-5	0.103270
18.320000	1.000000E-4	1.011627E-5	0.101163
18.333000	1.000000E-4	1.015836E-5	0.101584
18.334000	1.000000E-4	1.049564E-5	0.104956
18.340000	1.000000E-4	1.045355E-5	0.104535
18.344000	1.000000E-4	1.057981E-5	0.105798
18.351000	1.000000E-4	1.007415E-5	0.100741
18.359000	1.000000E-4	1.020059E-5	0.102006
18.356000	1.000000E-4	1.032701E-5	0.103270
18.367000	1.000000E-4	1.024271E-5	0.102427
18.364000	1.000000E-4	1.032699E-5	0.103270
18.380000	1.000000E-4	1.049566E-5	0.104957
18.375000	1.000000E-4	1.041128E-5	0.104113
18.387000	1.000000E-4	1.015844E-5	0.101584
18.387000	1.000000E-4	1.053773E-5	0.105377
18.395000	1.000000E-4	1.129661E-5	0.112966
18.401000	1.000000E-4	1.041132E-5	0.104113
18.406000	1.000000E-4	1.045347E-5	0.104535
18.416000	1.000000E-4	1.045341E-5	0.104534
18.411000	1.000000E-4	9.947638E-6	0.099476
18.424000	1.000000E-4	1.053778E-5	0.105378
18.421000	1.000000E-4	1.032699E-5	0.103270
18.438000	1.000000E-4	1.028479E-5	0.102848
18.432000	1.000000E-4	1.020055E-5	0.102005
18.444000	1.000000E-4	1.087494E-5	0.108749
18.447000	1.000000E-4	1.079062E-5	0.107906
18.451000	1.000000E-4	1.003197E-5	0.100320
18.460000	1.000000E-4	1.053780E-5	0.105378
18.464000	1.000000E-4	1.066420E-5	0.106642
18.473000	1.000000E-4	1.053778E-5	0.105378
18.470000	1.000000E-4	1.049568E-5	0.104957
18.483000	1.000000E-4	1.036910E-5	0.103691
18.480000	1.000000E-4	1.062207E-5	0.106221
18.496000	1.000000E-4	9.947741E-6	0.099477
18.491000	1.000000E-4	1.057996E-5	0.105800
18.504000	1.000000E-4	1.020052E-5	0.102005
18.505000	1.000000E-4	1.057991E-5	0.105799
18.511000	1.000000E-4	9.989860E-6	0.099899
18.519000	1.000000E-4	1.036910E-5	0.103691
18.523000	1.000000E-4	1.057986E-5	0.105799
18.532000	1.000000E-4	1.007414E-5	0.100741
18.529000	1.000000E-4	1.011627E-5	0.101163
18.542000	1.000000E-4	1.057996E-5	0.105800
18.537000	1.000000E-4	1.045348E-5	0.104535
18.553000	1.000000E-4	9.905457E-6	0.099055
18.549000	1.000000E-4	9.989723E-6	0.099897
18.561000	1.000000E-4	1.066418E-5	0.106642
18.563000	1.000000E-4	1.053773E-5	0.105377
18.573000	1.000000E-4	1.045350E-5	0.104535
18.576000	1.000000E-4	1.011624E-5	0.101162
18.579000	1.000000E-4	1.020049E-5	0.102005
18.589000	1.000000E-4	1.070636E-5	0.107064
18.585000	1.000000E-4	1.032702E-5	0.103270
18.596000	1.000000E-4	1.036921E-5	0.103692
18.593000	1.000000E-4	1.041138E-5	0.104114
18.610000	1.000000E-4	1.024265E-5	0.102426
18.605000	1.000000E-4	9.062486E-6	0.090625
18.616000	1.000000E-4	1.045348E-5	0.104535
18.616000	1.000000E-4	1.045338E-5	0.104534
18.626000	1.000000E-4	1.079066E-5	0.107907
18.629000	1.000000E-4	1.053784E-5	0.105378
18.633000	1.000000E-4	1.032694E-5	0.103269
18.644000	1.000000E-4	1.045347E-5	0.104535
18.639000	1.000000E-4	1.045345E-5	0.104535
18.651000	1.000000E-4	9.652516E-6	0.096525
18.648000	1.000000E-4	1.062205E-5	0.106221
18.661000	1.000000E-4	9.947616E-6	0.099476
18.659000	1.000000E-4	1.053765E-5	0.105377
18.670000	1.000000E-4	1.066428E-5	0.106643
18.671000	1.000000E-4	1.028482E-5	0.102848
18.681000	1.000000E-4	1.028483E-5	0.102848
18.683000	1.000000E-4	1.015833E-5	0.101583
18.687000	1.000000E-4	1.049561E-5	0.104956
18.697000	1.000000E-4	1.083284E-5	0.108328
18.693000	1.000000E-4	1.028481E-5	0.102848
18.706000	1.000000E-4	1.036914E-5	0.103691
18.702000	1.000000E-4	1.024279E-5	0.102428
18.716000	1.000000E-4	1.015842E-5	0.101584
18.711000	1.000000E-4	1.057994E-5	0.105799
18.727000	1.000000E-4	1.015838E-5	0.101584
18.726000	1.000000E-4	1.066420E-5	0.106642
18.736000	1.000000E-4	1.041130E-5	0.104113
18.737000	1.000000E-4	1.079067E-5	0.107907
18.741000	1.000000E-4	1.041137E-5	0.104114
18.752000	1.000000E-4	1.032697E-5	0.103270
18.748000	1.000000E-4	1.007406E-5	0.100741
18.759000	1.000000E-4	1.057992E-5	0.105799
18.756000	1.000000E-4	1.020057E-5	0.102006
18.771000	1.000000E-4	1.041133E-5	0.104113
18.768000	1.000000E-4	1.049562E-5	0.104956
18.781000	1.000000E-4	1.015841E-5	0.101584
18.781000	1.000000E-4	1.091709E-5	0.109171
18.790000	1.000000E-4	9.779040E-6	0.097790
18.794000	1.000000E-4	1.062202E-5	0.106220
18.797000	1.000000E-4	9.905443E-6	0.099054
18.807000	1.000000E-4	1.062209E-5	0.106221
18.805000	1.000000E-4	1.003199E-5	0.100320
18.816000	1.000000E-4	1.007410E-5	0.100741
18.813000	1.000000E-4	9.947666E-6	0.099477
18.829000	1.000000E-4	1.062207E-5	0.106221
18.825000	1.000000E-4	1.070640E-5	0.107064
18.839000	1.000000E-4	1.083288E-5	0.108329
18.839000	1.000000E-4	1.049563E-5	0.104956
18.846000	1.000000E-4	1.020057E-5	0.102006
18.849000	1.000000E-4	1.007410E-5	0.100741
18.853000	1.000000E-4	1.020052E-5	0.102005
18.864000	1.000000E-4	1.024272E-5	0.102427
18.860000	1.000000E-4	1.066421E-5	0.106642
18.872000	1.000000E-4	1.036914E-5	0.103691
18.869000	1.000000E-4	1.032702E-5	0.103270
18.882000	1.000000E-4	1.066430E-5	0.106643
18.881000	1.000000E-4	1.045348E-5	0.104535
18.893000	1.000000E-4	1.003198E-5	0.100320
18.893000	1.000000E-4	1.053782E-5	0.105378
18.902000	1.000000E-4	1.070639E-5	0.107064
18.904000	1.000000E-4	1.011630E-5	0.101163
18.907000	1.000000E-4	1.036916E-5	0.103692
18.919000	1.000000E-4	1.087500E-5	0.108750
18.916000	1.000000E-4	1.045351E-5	0.104535
18.929000	1.000000E-4	1.053780E-5	0.105378
18.926000	1.000000E-4	1.041139E-5	0.104114
18.941000	1.000000E-4	9.779017E-6	0.097790
18.936000	1.000000E-4	1.041133E-5	0.104113
18.950000	1.000000E-4	9.736888E-6	0.097369
18.952000	1.000000E-4	1.007405E-5	0.100741
18.957000	1.000000E-4	1.036914E-5	0.103691
18.960000	1.000000E-4	1.011629E-5	0.101163
18.964000	1.000000E-4	9.483838E-6	0.094838
18.975000	1.000000E-4	1.062207E-5	0.106221
18.972000	1.000000E-4	1.032707E-5	0.103271
18.986000	1.000000E-4	9.905480E-6	0.099055
18.980000	1.000000E-4	1.041130E-5	0.104113
18.995000	1.000000E-4	1.028483E-5	0.102848
18.991000	1.000000E-4	1.036909E-5	0.103691
19.004000	1.000000E-4	1.024272E-5	0.102427
